%time,field.header.seq,field.header.stamp,field.header.frame_id,field.orientation.x,field.orientation.y,field.orientation.z,field.orientation.w,field.orientation_covariance0,field.orientation_covariance1,field.orientation_covariance2,field.orientation_covariance3,field.orientation_covariance4,field.orientation_covariance5,field.orientation_covariance6,field.orientation_covariance7,field.orientation_covariance8,field.angular_velocity.x,field.angular_velocity.y,field.angular_velocity.z,field.angular_velocity_covariance0,field.angular_velocity_covariance1,field.angular_velocity_covariance2,field.angular_velocity_covariance3,field.angular_velocity_covariance4,field.angular_velocity_covariance5,field.angular_velocity_covariance6,field.angular_velocity_covariance7,field.angular_velocity_covariance8,field.linear_acceleration.x,field.linear_acceleration.y,field.linear_acceleration.z,field.linear_acceleration_covariance0,field.linear_acceleration_covariance1,field.linear_acceleration_covariance2,field.linear_acceleration_covariance3,field.linear_acceleration_covariance4,field.linear_acceleration_covariance5,field.linear_acceleration_covariance6,field.linear_acceleration_covariance7,field.linear_acceleration_covariance8
1505419079904737181,15913,1505419079904558857,0.00451440605986,-0.000390068626365,-0.531334173838,0.847150201379,1.0,0.0,0.0,0.0,1.0,0.0,0.0,0.0,100000.0,0.0492973476648,-0.113343171775,-0.0059389770031,1.0,0.0,0.0,0.0,1.0,0.0,0.0,0.0,1.0,-0.407409039885,0.231014085561,9.76026194096,0.1,0.0,0.0,0.0,0.1,0.0,0.0,0.0,0.1
1505419079913131643,15914,1505419079912919011,0.00439997322347,-0.000720965700859,-0.531495898502,0.847049130995,1.0,0.0,0.0,0.0,1.0,0.0,0.0,0.0,100000.0,0.0315479487181,-0.136389672756,-0.067998021841,1.0,0.0,0.0,0.0,1.0,0.0,0.0,0.0,1.0,-0.452689391375,0.317280735821,9.9481096983,0.1,0.0,0.0,0.0,0.1,0.0,0.0,0.0,0.1
1505419079918258196,15915,1505419079918089642,0.00433937101164,-0.000981790397548,-0.531509924759,0.847040380283,1.0,0.0,0.0,0.0,1.0,0.0,0.0,0.0,100000.0,0.0463159531355,-0.0993606671691,0.00145594787318,1.0,0.0,0.0,0.0,1.0,0.0,0.0,0.0,1.0,-0.392709849775,0.188497487456,10.1434447765,0.1,0.0,0.0,0.0,0.1,0.0,0.0,0.0,0.1
1505419079936047293,15916,1505419079935790613,0.00424928832137,-0.00122372535605,-0.531457427539,0.847073461253,1.0,0.0,0.0,0.0,1.0,0.0,0.0,0.0,100000.0,0.0185469835997,-0.108383193612,0.0310373902321,1.0,0.0,0.0,0.0,1.0,0.0,0.0,0.0,1.0,-0.514604688436,0.330432358384,10.2495348215,0.1,0.0,0.0,0.0,0.1,0.0,0.0,0.0,0.1
1505419079937524341,15917,1505419079937330438,0.00428213579663,-0.0014505988112,-0.531493634905,0.847050219959,1.0,0.0,0.0,0.0,1.0,0.0,0.0,0.0,100000.0,0.0670924112201,-0.0714203044772,-0.00698513165116,1.0,0.0,0.0,0.0,1.0,0.0,0.0,0.0,1.0,-0.467823097855,0.237793537602,10.4090501547,0.1,0.0,0.0,0.0,0.1,0.0,0.0,0.0,0.1
1505419079938606983,15918,1505419079938463507,0.00423318975161,-0.00159392837357,-0.531315726948,0.84716181323,1.0,0.0,0.0,0.0,1.0,0.0,0.0,0.0,100000.0,0.0172171257436,-0.0660628452897,0.0899784117937,1.0,0.0,0.0,0.0,1.0,0.0,0.0,0.0,1.0,-0.537702252716,0.257278194278,10.4075734854,0.1,0.0,0.0,0.0,0.1,0.0,0.0,0.0,0.1
1505419079945231898,15919,1505419079945025987,0.00408496326988,-0.00174813991816,-0.531307716669,0.847167260516,1.0,0.0,0.0,0.0,1.0,0.0,0.0,0.0,100000.0,-0.0148418843746,-0.0977278500795,0.0131474882364,1.0,0.0,0.0,0.0,1.0,0.0,0.0,0.0,1.0,-0.650489479303,0.336860112101,10.3804490328,0.1,0.0,0.0,0.0,0.1,0.0,0.0,0.0,0.1
1505419079947927286,15920,1505419079947043533,0.00402760714079,-0.00185592639119,-0.531233339739,0.847213947399,1.0,0.0,0.0,0.0,1.0,0.0,0.0,0.0,100000.0,0.00529648922384,-0.0676297098398,0.042647331953,1.0,0.0,0.0,0.0,1.0,0.0,0.0,0.0,1.0,-0.724017301202,0.268209263682,10.4113632917,0.1,0.0,0.0,0.0,0.1,0.0,0.0,0.0,0.1
1505419079947953610,15921,1505419079947062287,0.00386958263529,-0.00191072349809,-0.531129579488,0.847279614566,1.0,0.0,0.0,0.0,1.0,0.0,0.0,0.0,100000.0,-0.0374398268759,-0.0728221535683,0.0583262145519,1.0,0.0,0.0,0.0,1.0,0.0,0.0,0.0,1.0,-0.763932058215,0.27723405771,10.2680761337,0.1,0.0,0.0,0.0,0.1,0.0,0.0,0.0,0.1
1505419079954792765,15922,1505419079954581677,0.00385454622517,-0.00198404884311,-0.53118840621,0.847242635336,1.0,0.0,0.0,0.0,1.0,0.0,0.0,0.0,100000.0,0.0149842016399,-0.0458389818668,-0.0199972987175,1.0,0.0,0.0,0.0,1.0,0.0,0.0,0.0,1.0,-0.746175226569,0.248201796412,10.0647128344,0.1,0.0,0.0,0.0,0.1,0.0,0.0,0.0,0.1
1505419079955977893,15923,1505419079955815325,0.0037806882631,-0.00201965752275,-0.531106964303,0.847293939461,1.0,0.0,0.0,0.0,1.0,0.0,0.0,0.0,100000.0,-0.00497758761048,-0.0441570654511,0.0465464144945,1.0,0.0,0.0,0.0,1.0,0.0,0.0,0.0,1.0,-0.678947344422,0.127702835202,9.89934573174,0.1,0.0,0.0,0.0,0.1,0.0,0.0,0.0,0.1
1505419079960044993,15924,1505419079959825191,0.00360467568063,-0.00205402972019,-0.53119548726,0.84723912893,1.0,0.0,0.0,0.0,1.0,0.0,0.0,0.0,100000.0,-0.0398331210017,-0.0655451864004,-0.0365684479475,1.0,0.0,0.0,0.0,1.0,0.0,0.0,0.0,1.0,-0.643838553131,0.13915415965,9.73173441887,0.1,0.0,0.0,0.0,0.1,0.0,0.0,0.0,0.1
1505419079964861319,15925,1505419079964701014,0.00352482201575,-0.00214854548808,-0.53126166345,0.847197736264,1.0,0.0,0.0,0.0,1.0,0.0,0.0,0.0,100000.0,-0.00299427472055,-0.0589689947665,-0.0220694802701,1.0,0.0,0.0,0.0,1.0,0.0,0.0,0.0,1.0,-0.587178742886,0.22334517464,9.97090227604,0.1,0.0,0.0,0.0,0.1,0.0,0.0,0.0,0.1
1505419079971004056,15926,1505419079970797778,0.0032916029833,-0.00212622660869,-0.531320922472,0.847161567739,1.0,0.0,0.0,0.0,1.0,0.0,0.0,0.0,100000.0,-0.0735652893782,-0.0485521629453,-0.0193102862686,1.0,0.0,0.0,0.0,1.0,0.0,0.0,0.0,1.0,-0.474883861095,0.197495466471,10.0757598162,0.1,0.0,0.0,0.0,0.1,0.0,0.0,0.0,0.1
1505419079980605059,15927,1505419079980430394,0.00317198172002,-0.00210341268895,-0.531454066694,0.847078561399,1.0,0.0,0.0,0.0,1.0,0.0,0.0,0.0,100000.0,-0.0497708693147,-0.0232843868434,-0.056486595422,1.0,0.0,0.0,0.0,1.0,0.0,0.0,0.0,1.0,-0.460439094156,0.39981778115,10.3650947094,0.1,0.0,0.0,0.0,0.1,0.0,0.0,0.0,0.1
1505419079980615361,15928,1505419079980454192,0.00305718765543,-0.00207290331592,-0.531513350593,0.847041861313,1.0,0.0,0.0,0.0,1.0,0.0,0.0,0.0,100000.0,-0.0406017303467,-0.0119959935546,-0.0196463335305,1.0,0.0,0.0,0.0,1.0,0.0,0.0,0.0,1.0,-0.334580379725,0.240447803959,10.4119147062,0.1,0.0,0.0,0.0,0.1,0.0,0.0,0.0,0.1
1505419079985170705,15929,1505419079984993756,0.00281572208799,-0.00201439126648,-0.531572688273,0.847005602708,1.0,0.0,0.0,0.0,1.0,0.0,0.0,0.0,100000.0,-0.0919188559055,-0.0315599180758,-0.0212319791317,1.0,0.0,0.0,0.0,1.0,0.0,0.0,0.0,1.0,-0.370992720127,0.297475759313,10.4533922911,0.1,0.0,0.0,0.0,0.1,0.0,0.0,0.0,0.1
1505419079992295817,15930,1505419079992101480,0.00280247343958,-0.00206828715977,-0.531653808512,0.846954601041,1.0,0.0,0.0,0.0,1.0,0.0,0.0,0.0,100000.0,0.0118254665285,-0.0205656848848,-0.0276923943311,1.0,0.0,0.0,0.0,1.0,0.0,0.0,0.0,1.0,-0.415386843681,0.241192563996,10.4243227005,0.1,0.0,0.0,0.0,0.1,0.0,0.0,0.0,0.1
1505419079996247061,15931,1505419079996091503,0.0025758520621,-0.00201893013508,-0.531690952624,0.846932122312,1.0,0.0,0.0,0.0,1.0,0.0,0.0,0.0,100000.0,-0.0783858448267,-0.0382652804255,-0.00929330382496,1.0,0.0,0.0,0.0,1.0,0.0,0.0,0.0,1.0,-0.497269339859,0.134887013212,10.2663611412,0.1,0.0,0.0,0.0,0.1,0.0,0.0,0.0,0.1
1505419080003394251,15932,1505419080003230869,0.0024119356231,-0.00205020057333,-0.531742633551,0.846900083191,1.0,0.0,0.0,0.0,1.0,0.0,0.0,0.0,100000.0,-0.0419962033629,-0.055699005723,-0.0186144560575,1.0,0.0,0.0,0.0,1.0,0.0,0.0,0.0,1.0,-0.579584234953,0.241284162179,10.1263707876,0.1,0.0,0.0,0.0,0.1,0.0,0.0,0.0,0.1
1505419080014023287,15933,1505419080013798223,0.00221732880392,-0.00211385851614,-0.531831145614,0.846844878127,1.0,0.0,0.0,0.0,1.0,0.0,0.0,0.0,100000.0,-0.0431331396103,-0.0755648165941,-0.0321182087064,1.0,0.0,0.0,0.0,1.0,0.0,0.0,0.0,1.0,-0.603766812384,0.145092388801,9.90078618526,0.1,0.0,0.0,0.0,0.1,0.0,0.0,0.0,0.1
1505419080014957911,15934,1505419080014763983,0.00181304129922,-0.00219982359266,-0.531779214168,0.846878232709,1.0,0.0,0.0,0.0,1.0,0.0,0.0,0.0,100000.0,-0.116141401231,-0.127515807748,0.0313756167889,1.0,0.0,0.0,0.0,1.0,0.0,0.0,0.0,1.0,-0.569304465503,0.253766778484,9.67537506819,0.1,0.0,0.0,0.0,0.1,0.0,0.0,0.0,0.1
1505419080016270673,15935,1505419080016054461,0.00170052636951,-0.00242814105951,-0.531815420646,0.846855106086,1.0,0.0,0.0,0.0,1.0,0.0,0.0,0.0,100000.0,0.0112648792565,-0.109639123082,-0.00852691009641,1.0,0.0,0.0,0.0,1.0,0.0,0.0,0.0,1.0,-0.526977635175,0.266019869968,9.53228125572,0.1,0.0,0.0,0.0,0.1,0.0,0.0,0.0,0.1
1505419080020984970,15936,1505419080020733812,0.0013571855359,-0.002531895103,-0.531793005991,0.846869497817,1.0,0.0,0.0,0.0,1.0,0.0,0.0,0.0,100000.0,-0.095233798027,-0.11652276665,0.021033866331,1.0,0.0,0.0,0.0,1.0,0.0,0.0,0.0,1.0,-0.511807311326,0.325339915603,9.51462372541,0.1,0.0,0.0,0.0,0.1,0.0,0.0,0.0,0.1
1505419080025324097,15937,1505419080025197051,0.00123557165783,-0.00269263372253,-0.531822067466,0.846850938266,1.0,0.0,0.0,0.0,1.0,0.0,0.0,0.0,100000.0,-0.00969140976667,-0.0878143012524,-0.00738885812461,1.0,0.0,0.0,0.0,1.0,0.0,0.0,0.0,1.0,-0.490959981084,0.370836722106,9.67126924992,0.1,0.0,0.0,0.0,0.1,0.0,0.0,0.0,0.1
1505419080030569563,15938,1505419080030360430,0.0010888253942,-0.00274523436508,-0.531969738209,0.846758215654,1.0,0.0,0.0,0.0,1.0,0.0,0.0,0.0,100000.0,-0.0427533239126,-0.0568532459438,-0.0601568073034,1.0,0.0,0.0,0.0,1.0,0.0,0.0,0.0,1.0,-0.47737570405,0.35346698314,9.9960757494,0.1,0.0,0.0,0.0,0.1,0.0,0.0,0.0,0.1
1505419080035345024,15939,1505419080035083029,0.000845248789473,-0.00278820196885,-0.53202889991,0.846721182648,1.0,0.0,0.0,0.0,1.0,0.0,0.0,0.0,100000.0,-0.0759555101395,-0.0708064511418,-0.0212756246328,1.0,0.0,0.0,0.0,1.0,0.0,0.0,0.0,1.0,-0.411041132361,0.353505498916,10.1703542709,0.1,0.0,0.0,0.0,0.1,0.0,0.0,0.0,0.1
1505419080044302321,15940,1505419080044104923,0.000855639484973,-0.00283650863721,-0.532205984757,0.846609716391,1.0,0.0,0.0,0.0,1.0,0.0,0.0,0.0,100000.0,0.0159817244858,-0.0173732079566,-0.0754198282957,1.0,0.0,0.0,0.0,1.0,0.0,0.0,0.0,1.0,-0.453765423596,0.276633795723,10.3461515188,0.1,0.0,0.0,0.0,0.1,0.0,0.0,0.0,0.1
1505419080046441914,15941,1505419080046191470,0.000619731680738,-0.00271941689821,-0.532310066705,0.846544868031,1.0,0.0,0.0,0.0,1.0,0.0,0.0,0.0,100000.0,-0.108074449003,-0.0208083633333,-0.0387511849403,1.0,0.0,0.0,0.0,1.0,0.0,0.0,0.0,1.0,-0.475300269574,0.348016288877,10.2911339045,0.1,0.0,0.0,0.0,0.1,0.0,0.0,0.0,0.1
1505419080051635188,15942,1505419080051367317,0.000432911988519,-0.00262274278655,-0.532384468951,0.84649850031,1.0,0.0,0.0,0.0,1.0,0.0,0.0,0.0,100000.0,-0.0839580222964,-0.0196624696255,-0.0290113091469,1.0,0.0,0.0,0.0,1.0,0.0,0.0,0.0,1.0,-0.577296689898,0.294125963748,10.2029461384,0.1,0.0,0.0,0.0,0.1,0.0,0.0,0.0,0.1
1505419080055506720,15943,1505419080055300808,0.000155612696567,-0.00240738274203,-0.532525757333,0.846410360328,1.0,0.0,0.0,0.0,1.0,0.0,0.0,0.0,100000.0,-0.144499957561,-0.000544151291251,-0.0572837889194,1.0,0.0,0.0,0.0,1.0,0.0,0.0,0.0,1.0,-0.632240083814,0.331484477967,10.1302470446,0.1,0.0,0.0,0.0,0.1,0.0,0.0,0.0,0.1
1505419080060223141,15944,1505419080060082742,-0.000322964982883,-0.00225056628326,-0.53248234904,0.846438053614,1.0,0.0,0.0,0.0,1.0,0.0,0.0,0.0,100000.0,-0.188209667802,-0.0675805136561,0.0288819074631,1.0,0.0,0.0,0.0,1.0,0.0,0.0,0.0,1.0,-0.647290588915,0.168357934803,9.85423605442,0.1,0.0,0.0,0.0,0.1,0.0,0.0,0.0,0.1
1505419080065740457,15945,1505419080065571309,-0.000608562036589,-0.00216369576096,-0.532490226718,0.846433167192,1.0,0.0,0.0,0.0,1.0,0.0,0.0,0.0,100000.0,-0.100407831371,-0.0454628653824,0.00342480838299,1.0,0.0,0.0,0.0,1.0,0.0,0.0,0.0,1.0,-0.63230587095,0.0234886865132,9.71447467804,0.1,0.0,0.0,0.0,0.1,0.0,0.0,0.0,0.1
1505419080070677000,15946,1505419080070492040,-0.00105035233626,-0.00211255358365,-0.532402135034,0.846488275459,1.0,0.0,0.0,0.0,1.0,0.0,0.0,0.0,100000.0,-0.146118789911,-0.0899277925491,0.0527643375099,1.0,0.0,0.0,0.0,1.0,0.0,0.0,0.0,1.0,-0.569964855909,0.0295509784482,9.50366611481,0.1,0.0,0.0,0.0,0.1,0.0,0.0,0.0,0.1
1505419080077482715,15947,1505419080077301531,-0.00136290809402,-0.0021840076255,-0.532284112996,0.846561867582,1.0,0.0,0.0,0.0,1.0,0.0,0.0,0.0,100000.0,-0.0804525613785,-0.104361206293,0.0612166188657,1.0,0.0,0.0,0.0,1.0,0.0,0.0,0.0,1.0,-0.589479430765,0.078637496382,9.36801815033,0.1,0.0,0.0,0.0,0.1,0.0,0.0,0.0,0.1
1505419080080366205,15948,1505419080080178547,-0.0014974533168,-0.00231588404478,-0.532306103734,0.846547462487,1.0,0.0,0.0,0.0,1.0,0.0,0.0,0.0,100000.0,-0.0280204862356,-0.0826492831111,0.000915914773941,1.0,0.0,0.0,0.0,1.0,0.0,0.0,0.0,1.0,-0.507990817726,0.320621714741,9.55890043974,0.1,0.0,0.0,0.0,0.1,0.0,0.0,0.0,0.1
1505419080085428664,15949,1505419080085263470,-0.00164211993936,-0.00251355885224,-0.532246711324,0.846583973241,1.0,0.0,0.0,0.0,1.0,0.0,0.0,0.0,100000.0,-0.0148541014642,-0.107338182628,0.0337980389595,1.0,0.0,0.0,0.0,1.0,0.0,0.0,0.0,1.0,-0.477502568811,0.406369113922,9.53579769135,0.1,0.0,0.0,0.0,0.1,0.0,0.0,0.0,0.1
1505419080090497753,15950,1505419080090295875,-0.00149704269112,-0.00279034362136,-0.532349150738,0.846518962903,1.0,0.0,0.0,0.0,1.0,0.0,0.0,0.0,100000.0,0.104930862784,-0.0704591721296,-0.0379348509014,1.0,0.0,0.0,0.0,1.0,0.0,0.0,0.0,1.0,-0.462457576394,0.377802820504,9.82331478596,0.1,0.0,0.0,0.0,0.1,0.0,0.0,0.0,0.1
1505419080096647764,15951,1505419080096479000,-0.00144518862069,-0.00301885534028,-0.53241478805,0.846476988115,1.0,0.0,0.0,0.0,1.0,0.0,0.0,0.0,100000.0,0.0620314851403,-0.0740555375814,-0.0235840082169,1.0,0.0,0.0,0.0,1.0,0.0,0.0,0.0,1.0,-0.442529404163,0.349707770348,9.92180652618,0.1,0.0,0.0,0.0,0.1,0.0,0.0,0.0,0.1
1505419080100506967,15952,1505419080100339425,-0.00139256645634,-0.00327881553255,-0.532487666886,0.846430265729,1.0,0.0,0.0,0.0,1.0,0.0,0.0,0.0,100000.0,0.0732683762908,-0.0871808156371,-0.0289698019624,1.0,0.0,0.0,0.0,1.0,0.0,0.0,0.0,1.0,-0.533806025982,0.228641659766,10.0355322599,0.1,0.0,0.0,0.0,0.1,0.0,0.0,0.0,0.1
1505419080105717737,15953,1505419080105534210,-0.00137979743745,-0.00342103137163,-0.532656998245,0.846323174044,1.0,0.0,0.0,0.0,1.0,0.0,0.0,0.0,100000.0,0.0427880957723,-0.0610244870186,-0.0710052922368,1.0,0.0,0.0,0.0,1.0,0.0,0.0,0.0,1.0,-0.5591612719,0.134658282436,10.2261639595,0.1,0.0,0.0,0.0,0.1,0.0,0.0,0.0,0.1
1505419080111553414,15954,1505419080111348863,-0.00160774503903,-0.00342198370637,-0.532753369701,0.84626210612,1.0,0.0,0.0,0.0,1.0,0.0,0.0,0.0,100000.0,-0.0731270313263,-0.0627627596259,-0.0354864448309,1.0,0.0,0.0,0.0,1.0,0.0,0.0,0.0,1.0,-0.574947410077,0.191371932626,10.0896292925,0.1,0.0,0.0,0.0,0.1,0.0,0.0,0.0,0.1
1505419080115832757,15955,1505419080115683169,-0.0017295657356,-0.00341755706694,-0.532916011564,0.846159472868,1.0,0.0,0.0,0.0,1.0,0.0,0.0,0.0,100000.0,-0.0407834649086,-0.0457846410573,-0.0682787746191,1.0,0.0,0.0,0.0,1.0,0.0,0.0,0.0,1.0,-0.681878778338,0.193383003771,9.96790337563,0.1,0.0,0.0,0.0,0.1,0.0,0.0,0.0,0.1
1505419080120545802,15956,1505419080120353187,-0.00194238685609,-0.00326291544229,-0.533072010272,0.84606135261,1.0,0.0,0.0,0.0,1.0,0.0,0.0,0.0,100000.0,-0.0999657958746,-0.0133518818766,-0.065433382988,1.0,0.0,0.0,0.0,1.0,0.0,0.0,0.0,1.0,-0.666336658597,0.165130769089,9.67189484835,0.1,0.0,0.0,0.0,0.1,0.0,0.0,0.0,0.1
1505419080126920829,15957,1505419080126754059,-0.00223832045623,-0.00315894885332,-0.53315407713,0.846009303143,1.0,0.0,0.0,0.0,1.0,0.0,0.0,0.0,100000.0,-0.122730866075,-0.0506581291556,-0.0295257866383,1.0,0.0,0.0,0.0,1.0,0.0,0.0,0.0,1.0,-0.739850534499,0.218424336985,9.3397529006,0.1,0.0,0.0,0.0,0.1,0.0,0.0,0.0,0.1
1505419080131845931,15958,1505419080131611692,-0.00235083515468,-0.00313953923176,-0.533331461352,0.845897256881,1.0,0.0,0.0,0.0,1.0,0.0,0.0,0.0,100000.0,-0.0372905284166,-0.0395817197859,-0.0754809975624,1.0,0.0,0.0,0.0,1.0,0.0,0.0,0.0,1.0,-0.700327652693,0.168544763699,9.29663918018,0.1,0.0,0.0,0.0,0.1,0.0,0.0,0.0,0.1
1505419080136082480,15959,1505419080135900648,-0.00275119442987,-0.00302114581963,-0.533413716879,0.845844613539,1.0,0.0,0.0,0.0,1.0,0.0,0.0,0.0,100000.0,-0.154613509774,-0.062456317246,-0.029973089695,1.0,0.0,0.0,0.0,1.0,0.0,0.0,0.0,1.0,-0.59803847596,0.127395904623,9.21515367031,0.1,0.0,0.0,0.0,0.1,0.0,0.0,0.0,0.1
1505419080148642779,15960,1505419080148448500,-0.00312173656037,-0.0030348875918,-0.533547176076,0.845759099933,1.0,0.0,0.0,0.0,1.0,0.0,0.0,0.0,100000.0,-0.123188555241,-0.0986091345549,-0.0540817677975,1.0,0.0,0.0,0.0,1.0,0.0,0.0,0.0,1.0,-0.582822407782,0.268970762566,9.38910391331,0.1,0.0,0.0,0.0,0.1,0.0,0.0,0.0,0.1
1505419080151235931,15961,1505419080151037026,-0.00345640960055,-0.00304007272717,-0.533747046957,0.845631658025,1.0,0.0,0.0,0.0,1.0,0.0,0.0,0.0,100000.0,-0.122090980411,-0.0799026787281,-0.0846154689789,1.0,0.0,0.0,0.0,1.0,0.0,0.0,0.0,1.0,-0.446792644262,0.393576363474,9.64321311712,0.1,0.0,0.0,0.0,0.1,0.0,0.0,0.0,0.1
1505419080153137477,15962,1505419080152987924,-0.00382127692202,-0.00307793365631,-0.533814090379,0.845587630633,1.0,0.0,0.0,0.0,1.0,0.0,0.0,0.0,100000.0,-0.138459682465,-0.100832141936,-0.0240514576435,1.0,0.0,0.0,0.0,1.0,0.0,0.0,0.0,1.0,-0.446124441177,0.608235445619,9.78663812876,0.1,0.0,0.0,0.0,0.1,0.0,0.0,0.0,0.1
1505419080155722149,15963,1505419080155494607,-0.00382125911844,-0.00330456065981,-0.534020062035,0.845456711607,1.0,0.0,0.0,0.0,1.0,0.0,0.0,0.0,100000.0,0.0237606037408,-0.0846018642187,-0.0881324708462,1.0,0.0,0.0,0.0,1.0,0.0,0.0,0.0,1.0,-0.469752208889,0.632274693251,10.03583951,0.1,0.0,0.0,0.0,0.1,0.0,0.0,0.0,0.1
1505419080160560882,15964,1505419080160350871,-0.00392517379353,-0.00332136890361,-0.534079276152,0.845418765053,1.0,0.0,0.0,0.0,1.0,0.0,0.0,0.0,100000.0,-0.0558286719024,-0.0390054546297,-0.0190489012748,1.0,0.0,0.0,0.0,1.0,0.0,0.0,0.0,1.0,-0.444067041576,0.676896625757,10.0067126751,0.1,0.0,0.0,0.0,0.1,0.0,0.0,0.0,0.1
1505419080165524920,15965,1505419080165350434,-0.00382975116276,-0.00346418384072,-0.534100766274,0.845405053156,1.0,0.0,0.0,0.0,1.0,0.0,0.0,0.0,100000.0,0.0401144437492,-0.0478081032634,-0.00369739532471,1.0,0.0,0.0,0.0,1.0,0.0,0.0,0.0,1.0,-0.624124974012,0.587039830536,10.0498223066,0.1,0.0,0.0,0.0,0.1,0.0,0.0,0.0,0.1
1505419080170613350,15966,1505419080170422005,-0.00369654155995,-0.00338301000481,-0.534196641857,0.845345396068,1.0,0.0,0.0,0.0,1.0,0.0,0.0,0.0,100000.0,0.0120976362377,0.0383012257516,-0.0345592647791,1.0,0.0,0.0,0.0,1.0,0.0,0.0,0.0,1.0,-0.630360294878,0.467661368102,9.99359321594,0.1,0.0,0.0,0.0,0.1,0.0,0.0,0.0,0.1
1505419080177317472,15967,1505419080177078022,-0.00361017756296,-0.00323137323842,-0.534064085239,0.845430114026,1.0,0.0,0.0,0.0,1.0,0.0,0.0,0.0,100000.0,-0.0137783139944,0.0522029623389,0.0700484216213,1.0,0.0,0.0,0.0,1.0,0.0,0.0,0.0,1.0,-0.613628895581,0.409331871569,9.90062963963,0.1,0.0,0.0,0.0,0.1,0.0,0.0,0.0,0.1
1505419080180655948,15968,1505419080180500185,-0.00333063552191,-0.00318085699347,-0.534078487091,0.845422355183,1.0,0.0,0.0,0.0,1.0,0.0,0.0,0.0,100000.0,0.0815039202571,0.0523275211453,0.00410193298012,1.0,0.0,0.0,0.0,1.0,0.0,0.0,0.0,1.0,-0.672450189292,0.279994653165,9.66134787798,0.1,0.0,0.0,0.0,0.1,0.0,0.0,0.0,0.1
1505419080186422328,15969,1505419080186250119,-0.00328217667519,-0.00297419764467,-0.53399780563,0.845474260428,1.0,0.0,0.0,0.0,1.0,0.0,0.0,0.0,100000.0,-0.0184680838138,0.0653417855501,0.0452035181224,1.0,0.0,0.0,0.0,1.0,0.0,0.0,0.0,1.0,-0.609442467988,0.0872115919366,9.42392655611,0.1,0.0,0.0,0.0,0.1,0.0,0.0,0.0,0.1
1505419080190876306,15970,1505419080190669210,-0.00317204402422,-0.003012892492,-0.533931075533,0.845516686527,1.0,0.0,0.0,0.0,1.0,0.0,0.0,0.0,100000.0,0.0536258816719,-0.00839878432453,0.0421153306961,1.0,0.0,0.0,0.0,1.0,0.0,0.0,0.0,1.0,-0.630800944567,0.0809463802725,9.21841133833,0.1,0.0,0.0,0.0,0.1,0.0,0.0,0.0,0.1
1505419080195765126,15971,1505419080195585477,-0.0031158168089,-0.00295531483176,-0.534063919354,0.845433195376,1.0,0.0,0.0,0.0,1.0,0.0,0.0,0.0,100000.0,0.0196250453591,0.0139805022627,-0.0549442321062,1.0,0.0,0.0,0.0,1.0,0.0,0.0,0.0,1.0,-0.612520079315,0.0380444418639,9.17224906683,0.1,0.0,0.0,0.0,0.1,0.0,0.0,0.0,0.1
1505419080202184601,15972,1505419080202012407,-0.00310380427413,-0.00295257061183,-0.534071278929,0.84542860003,1.0,0.0,0.0,0.0,1.0,0.0,0.0,0.0,100000.0,0.0112446602434,-0.00457192771137,0.00611291825771,1.0,0.0,0.0,0.0,1.0,0.0,0.0,0.0,1.0,-0.433530914038,0.0982919784263,9.25512129068,0.1,0.0,0.0,0.0,0.1,0.0,0.0,0.0,0.1
1505419080211778252,15973,1505419080211554155,-0.00307535525097,-0.00305286790371,-0.53425538902,0.845312014283,1.0,0.0,0.0,0.0,1.0,0.0,0.0,0.0,100000.0,0.0305803958327,-0.0326129049063,-0.0801800489426,1.0,0.0,0.0,0.0,1.0,0.0,0.0,0.0,1.0,-0.415918982029,0.186110495031,9.39839034081,0.1,0.0,0.0,0.0,0.1,0.0,0.0,0.0,0.1
1505419080212495860,15974,1505419080212320164,-0.00308100729309,-0.00314200562958,-0.534410067979,0.845213886798,1.0,0.0,0.0,0.0,1.0,0.0,0.0,0.0,100000.0,0.017210803926,-0.0325615517795,-0.064731195569,1.0,0.0,0.0,0.0,1.0,0.0,0.0,0.0,1.0,-0.293031841889,0.246717533469,9.65235468149,0.1,0.0,0.0,0.0,0.1,0.0,0.0,0.0,0.1
1505419080219528066,15975,1505419080219394562,-0.00308206716271,-0.00330646838054,-0.534461166243,0.845180945068,1.0,0.0,0.0,0.0,1.0,0.0,0.0,0.0,100000.0,0.0363973341882,-0.0537229813635,-0.0150560438633,1.0,0.0,0.0,0.0,1.0,0.0,0.0,0.0,1.0,-0.293316876888,0.208668199554,9.88870179653,0.1,0.0,0.0,0.0,0.1,0.0,0.0,0.0,0.1
1505419080222057735,15976,1505419080221887316,-0.00297963249467,-0.00337103720958,-0.53466725841,0.845050697108,1.0,0.0,0.0,0.0,1.0,0.0,0.0,0.0,100000.0,0.0470732152462,-0.00641873851418,-0.0882368981838,1.0,0.0,0.0,0.0,1.0,0.0,0.0,0.0,1.0,-0.446353710443,0.251012133807,9.98554747105,0.1,0.0,0.0,0.0,0.1,0.0,0.0,0.0,0.1
1505419080226004899,15977,1505419080225853122,-0.00282882348414,-0.00319796372155,-0.534667534993,0.845051713098,1.0,0.0,0.0,0.0,1.0,0.0,0.0,0.0,100000.0,0.0124753825366,0.082161962986,0.010218590498,1.0,0.0,0.0,0.0,1.0,0.0,0.0,0.0,1.0,-0.39681661725,0.244981238618,10.0817190647,0.1,0.0,0.0,0.0,0.1,0.0,0.0,0.0,0.1
1505419080230953020,15978,1505419080230707721,-0.002701071229,-0.0029792720043,-0.534719616943,0.845019975746,1.0,0.0,0.0,0.0,1.0,0.0,0.0,0.0,100000.0,0.00266064703465,0.0837806090713,-0.0169059038162,1.0,0.0,0.0,0.0,1.0,0.0,0.0,0.0,1.0,-0.621007715166,0.119440379739,9.90994644165,0.1,0.0,0.0,0.0,0.1,0.0,0.0,0.0,0.1
1505419080236363611,15979,1505419080236179221,-0.0025570521696,-0.00263655553228,-0.5348309101,0.84495112738,1.0,0.0,0.0,0.0,1.0,0.0,0.0,0.0,100000.0,-0.0232360512018,0.129959046841,-0.0399853885174,1.0,0.0,0.0,0.0,1.0,0.0,0.0,0.0,1.0,-0.604529059678,0.232804503292,9.86228179932,0.1,0.0,0.0,0.0,0.1,0.0,0.0,0.0,0.1
1505419080247625577,15980,1505419080247425323,-0.00252320909906,-0.00242053153008,-0.534750247469,0.845002927377,1.0,0.0,0.0,0.0,1.0,0.0,0.0,0.0,100000.0,-0.0288817696273,0.0614536441863,0.0451896637678,1.0,0.0,0.0,0.0,1.0,0.0,0.0,0.0,1.0,-0.660629241168,0.150102944486,9.57234116793,0.1,0.0,0.0,0.0,0.1,0.0,0.0,0.0,0.1
1505419080247634623,15981,1505419080247449709,-0.00240076189371,-0.00229131825569,-0.534890431925,0.844914914082,1.0,0.0,0.0,0.0,1.0,0.0,0.0,0.0,100000.0,0.0125603470951,0.0486330464482,-0.055564686656,1.0,0.0,0.0,0.0,1.0,0.0,0.0,0.0,1.0,-0.724434658885,0.248996754736,9.27508553267,0.1,0.0,0.0,0.0,0.1,0.0,0.0,0.0,0.1
1505419080250815447,15982,1505419080250568671,-0.0025063294585,-0.00213147121672,-0.534935163356,0.844886706102,1.0,0.0,0.0,0.0,1.0,0.0,0.0,0.0,100000.0,-0.0739264115691,0.0138733806089,-0.0107127651572,1.0,0.0,0.0,0.0,1.0,0.0,0.0,0.0,1.0,-0.630432361364,0.292974451557,9.02307567596,0.1,0.0,0.0,0.0,0.1,0.0,0.0,0.0,0.1
1505419080256181451,15983,1505419080255964451,-0.00259347168727,-0.00213818298054,-0.534994219012,0.844849032492,1.0,0.0,0.0,0.0,1.0,0.0,0.0,0.0,100000.0,-0.0377281904221,-0.0370782315731,-0.0208589956164,1.0,0.0,0.0,0.0,1.0,0.0,0.0,0.0,1.0,-0.596700609475,0.389192903042,8.87486550808,0.1,0.0,0.0,0.0,0.1,0.0,0.0,0.0,0.1
1505419080261376370,15984,1505419080261257551,-0.00268847304353,-0.00213960342569,-0.535245024289,0.844689859169,1.0,0.0,0.0,0.0,1.0,0.0,0.0,0.0,100000.0,-0.0447550602257,-0.0286408104002,-0.110187478364,1.0,0.0,0.0,0.0,1.0,0.0,0.0,0.0,1.0,-0.488017886877,0.458582633734,9.20046466589,0.1,0.0,0.0,0.0,0.1,0.0,0.0,0.0,0.1
1505419080266180802,15985,1505419080266039380,-0.00279554763894,-0.00222662398225,-0.535303951205,0.844651944225,1.0,0.0,0.0,0.0,1.0,0.0,0.0,0.0,100000.0,-0.0299482643604,-0.0547098182142,-0.017332047224,1.0,0.0,0.0,0.0,1.0,0.0,0.0,0.0,1.0,-0.355537854135,0.444536276907,9.5028740406,0.1,0.0,0.0,0.0,0.1,0.0,0.0,0.0,0.1
1505419080271283583,15986,1505419080271135373,-0.00260132244386,-0.00227707141884,-0.535539462896,0.84450312714,1.0,0.0,0.0,0.0,1.0,0.0,0.0,0.0,100000.0,0.0595801621675,0.0224646553397,-0.102067247033,1.0,0.0,0.0,0.0,1.0,0.0,0.0,0.0,1.0,-0.331747772545,0.494856463373,9.91807980537,0.1,0.0,0.0,0.0,0.1,0.0,0.0,0.0,0.1
1505419080277682383,15987,1505419080277465756,-0.0025129750111,-0.0021365204726,-0.535716489302,0.844391475163,1.0,0.0,0.0,0.0,1.0,0.0,0.0,0.0,100000.0,-0.0105996020138,0.0675687789917,-0.0730642676353,1.0,0.0,0.0,0.0,1.0,0.0,0.0,0.0,1.0,-0.314298884571,0.405889437348,10.0022733212,0.1,0.0,0.0,0.0,0.1,0.0,0.0,0.0,0.1
1505419080281081706,15988,1505419080280960682,-0.0024057847828,-0.00185302716302,-0.535797844734,0.844340836433,1.0,0.0,0.0,0.0,1.0,0.0,0.0,0.0,100000.0,-0.0299033578485,0.115086905658,-0.0290100574493,1.0,0.0,0.0,0.0,1.0,0.0,0.0,0.0,1.0,-0.42931035161,0.364040239155,9.93017470837,0.1,0.0,0.0,0.0,0.1,0.0,0.0,0.0,0.1
1505419080286635815,15989,1505419080286441575,-0.00232187845644,-0.00140963887084,-0.536115104984,0.844140519112,1.0,0.0,0.0,0.0,1.0,0.0,0.0,0.0,100000.0,-0.0727093890309,0.151739239693,-0.142149031162,1.0,0.0,0.0,0.0,1.0,0.0,0.0,0.0,1.0,-0.578580305725,0.327566565573,9.73738816977,0.1,0.0,0.0,0.0,0.1,0.0,0.0,0.0,0.1
1505419080291306513,15990,1505419080291001419,-0.00243751236326,-0.000891574036552,-0.536159778263,0.844112525557,1.0,0.0,0.0,0.0,1.0,0.0,0.0,0.0,100000.0,-0.15308855474,0.132364705205,-0.00895088911057,1.0,0.0,0.0,0.0,1.0,0.0,0.0,0.0,1.0,-0.671940977871,0.292539971694,9.47265372276,0.1,0.0,0.0,0.0,0.1,0.0,0.0,0.0,0.1
1505419080296111074,15991,1505419080295958508,-0.00242664860074,-0.000401710571708,-0.536365993263,0.84398191407,1.0,0.0,0.0,0.0,1.0,0.0,0.0,0.0,100000.0,-0.10502396524,0.145315438509,-0.0886816382408,1.0,0.0,0.0,0.0,1.0,0.0,0.0,0.0,1.0,-0.731178680062,0.275210391358,9.23537025452,0.1,0.0,0.0,0.0,0.1,0.0,0.0,0.0,0.1
1505419080301219376,15992,1505419080301049600,-0.00251192115861,6.65414653395e-05,-0.536520364635,0.843883631881,1.0,0.0,0.0,0.0,1.0,0.0,0.0,0.0,100000.0,-0.133806958795,0.123668864369,-0.0625088512897,1.0,0.0,0.0,0.0,1.0,0.0,0.0,0.0,1.0,-0.66305051446,0.248445504531,9.09720938206,0.1,0.0,0.0,0.0,0.1,0.0,0.0,0.0,0.1
1505419080312352258,15993,1505419080312144240,-0.00258302222396,0.00044268270657,-0.536527291977,0.843878899483,1.0,0.0,0.0,0.0,1.0,0.0,0.0,0.0,100000.0,-0.113677635789,0.100605264306,0.00781828165054,1.0,0.0,0.0,0.0,1.0,0.0,0.0,0.0,1.0,-0.554065068811,0.372278161347,8.94384664297,0.1,0.0,0.0,0.0,0.1,0.0,0.0,0.0,0.1
1505419080314870480,15994,1505419080314762932,-0.00255346024021,0.000652297330018,-0.536784690319,0.843715147777,1.0,0.0,0.0,0.0,1.0,0.0,0.0,0.0,100000.0,-0.0388291403651,0.0686496719718,-0.114569962025,1.0,0.0,0.0,0.0,1.0,0.0,0.0,0.0,1.0,-0.490448907763,0.314562288672,9.02826154232,0.1,0.0,0.0,0.0,0.1,0.0,0.0,0.0,0.1
1505419080316434891,15995,1505419080316228833,-0.00260298494022,0.000818347136126,-0.536806470692,0.843700994311,1.0,0.0,0.0,0.0,1.0,0.0,0.0,0.0,100000.0,-0.0699816122651,0.0442862212658,-0.000931054353714,1.0,0.0,0.0,0.0,1.0,0.0,0.0,0.0,1.0,-0.388728815317,0.491831277311,9.05617748499,0.1,0.0,0.0,0.0,0.1,0.0,0.0,0.0,0.1
1505419080321350159,15996,1505419080321046598,-0.00247698467576,0.000821553361568,-0.536983137661,0.843588939866,1.0,0.0,0.0,0.0,1.0,0.0,0.0,0.0,100000.0,0.026809759438,0.0295666344464,-0.0729719400406,1.0,0.0,0.0,0.0,1.0,0.0,0.0,0.0,1.0,-0.354414690286,0.467230064422,9.18864079714,0.1,0.0,0.0,0.0,0.1,0.0,0.0,0.0,0.1
1505419080328183196,15997,1505419080327966377,-0.00234769227571,0.000781078070119,-0.537115669141,0.843504971071,1.0,0.0,0.0,0.0,1.0,0.0,0.0,0.0,100000.0,0.0405083149672,0.0160040874034,-0.0523961484432,1.0,0.0,0.0,0.0,1.0,0.0,0.0,0.0,1.0,-0.364434487373,0.405377597362,9.33056635857,0.1,0.0,0.0,0.0,0.1,0.0,0.0,0.0,0.1
1505419080331375180,15998,1505419080331203523,-0.00220044021807,0.000801115020778,-0.537115597736,0.843505394735,1.0,0.0,0.0,0.0,1.0,0.0,0.0,0.0,100000.0,0.0316580235958,0.0377420559525,0.0108801722527,1.0,0.0,0.0,0.0,1.0,0.0,0.0,0.0,1.0,-0.367274432629,0.410045344383,9.38248226643,0.1,0.0,0.0,0.0,0.1,0.0,0.0,0.0,0.1
1505419080338317015,15999,1505419080338178875,-0.00200359844263,0.000655483082731,-0.537255689513,0.843416789032,1.0,0.0,0.0,0.0,1.0,0.0,0.0,0.0,100000.0,0.0954947248101,-0.00843321159482,-0.0578192919493,1.0,0.0,0.0,0.0,1.0,0.0,0.0,0.0,1.0,-0.464818173647,0.293305230886,9.55823979378,0.1,0.0,0.0,0.0,0.1,0.0,0.0,0.0,0.1
1505419080346328873,16000,1505419080346150925,-0.00185168440113,0.000682775046211,-0.537218779086,0.843440625344,1.0,0.0,0.0,0.0,1.0,0.0,0.0,0.0,100000.0,0.0380846448243,0.0331861935556,0.0275897532701,1.0,0.0,0.0,0.0,1.0,0.0,0.0,0.0,1.0,-0.504490956664,0.302957941592,9.58122396469,0.1,0.0,0.0,0.0,0.1,0.0,0.0,0.0,0.1
1505419080347792228,16001,1505419080347603619,-0.00170509458514,0.000620574269719,-0.537270396078,0.843408103493,1.0,0.0,0.0,0.0,1.0,0.0,0.0,0.0,100000.0,0.0591112226248,0.0012984117493,-0.0135370716453,1.0,0.0,0.0,0.0,1.0,0.0,0.0,0.0,1.0,-0.549971991777,0.282654030621,9.64624648094,0.1,0.0,0.0,0.0,0.1,0.0,0.0,0.0,0.1
1505419080352746390,16002,1505419080352562924,-0.00152497643674,0.000692198446066,-0.537321761515,0.843375669504,1.0,0.0,0.0,0.0,1.0,0.0,0.0,0.0,100000.0,0.045949831605,0.0493930205703,-0.0151023566723,1.0,0.0,0.0,0.0,1.0,0.0,0.0,0.0,1.0,-0.62720579803,0.241491800547,9.64076095819,0.1,0.0,0.0,0.0,0.1,0.0,0.0,0.0,0.1
1505419080356749380,16003,1505419080356560494,-0.00142247844907,0.000885560399512,-0.537314100068,0.843380548866,1.0,0.0,0.0,0.0,1.0,0.0,0.0,0.0,100000.0,-0.00633943267167,0.0710034221411,0.0119505822659,1.0,0.0,0.0,0.0,1.0,0.0,0.0,0.0,1.0,-0.636220315099,0.18905762732,9.55964753628,0.1,0.0,0.0,0.0,0.1,0.0,0.0,0.0,0.1
1505419080361752074,16004,1505419080361566650,-0.00135997666125,0.00103234269216,-0.537461067211,0.843286834929,1.0,0.0,0.0,0.0,1.0,0.0,0.0,0.0,100000.0,-0.00664498284459,0.0439262986183,-0.0583805330098,1.0,0.0,0.0,0.0,1.0,0.0,0.0,0.0,1.0,-0.764965668321,0.159625513852,9.45225255489,0.1,0.0,0.0,0.0,0.1,0.0,0.0,0.0,0.1
1505419080366573194,16005,1505419080366400937,-0.00129401622673,0.0012493769931,-0.537607798272,0.843193109446,1.0,0.0,0.0,0.0,1.0,0.0,0.0,0.0,100000.0,-0.0239391922951,0.0707876086235,-0.0615036860108,1.0,0.0,0.0,0.0,1.0,0.0,0.0,0.0,1.0,-0.721531628072,0.181089260802,9.33848826885,0.1,0.0,0.0,0.0,0.1,0.0,0.0,0.0,0.1
1505419080371838018,16006,1505419080371651010,-0.00134322644939,0.00130190694874,-0.537784280929,0.843080404212,1.0,0.0,0.0,0.0,1.0,0.0,0.0,0.0,100000.0,-0.0301062427461,-0.00761433504522,-0.0716881155968,1.0,0.0,0.0,0.0,1.0,0.0,0.0,0.0,1.0,-0.655362838507,0.254898010567,9.19033592939,0.1,0.0,0.0,0.0,0.1,0.0,0.0,0.0,0.1
1505419080377944796,16007,1505419080377742037,-0.00129190686763,0.00130096451856,-0.538078557152,0.842892700645,1.0,0.0,0.0,0.0,1.0,0.0,0.0,0.0,100000.0,0.0120636150241,0.000698647461832,-0.128869146109,1.0,0.0,0.0,0.0,1.0,0.0,0.0,0.0,1.0,-0.575460929424,0.319320794195,9.20892630816,0.1,0.0,0.0,0.0,0.1,0.0,0.0,0.0,0.1
1505419080381423134,16008,1505419080381260030,-0.00123077990046,0.00128304266379,-0.538240387632,0.842789489792,1.0,0.0,0.0,0.0,1.0,0.0,0.0,0.0,100000.0,0.0182566735893,0.00890666339546,-0.0701002776623,1.0,0.0,0.0,0.0,1.0,0.0,0.0,0.0,1.0,-0.38200257346,0.344876358658,9.19022319317,0.1,0.0,0.0,0.0,0.1,0.0,0.0,0.0,0.1
1505419080387136680,16009,1505419080386994725,-0.00114424639258,0.00120757130492,-0.538461171942,0.84264868052,1.0,0.0,0.0,0.0,1.0,0.0,0.0,0.0,100000.0,0.0356854684651,-0.006865080446,-0.0937472879887,1.0,0.0,0.0,0.0,1.0,0.0,0.0,0.0,1.0,-0.380160862207,0.387407632917,9.31923023462,0.1,0.0,0.0,0.0,0.1,0.0,0.0,0.0,0.1
1505419080391471269,16010,1505419080391276795,-0.000899052954386,0.0011858966613,-0.53865244562,0.842526752205,1.0,0.0,0.0,0.0,1.0,0.0,0.0,0.0,100000.0,0.0779190659523,0.048613473773,-0.0804365053773,1.0,0.0,0.0,0.0,1.0,0.0,0.0,0.0,1.0,-0.336565895379,0.35657383725,9.45441206694,0.1,0.0,0.0,0.0,0.1,0.0,0.0,0.0,0.1
1505419080399156077,16011,1505419080398992823,-0.000724311523255,0.00116751411942,-0.538718709873,0.842484577851,1.0,0.0,0.0,0.0,1.0,0.0,0.0,0.0,100000.0,0.0549117252231,0.0329099483788,-0.0222986359149,1.0,0.0,0.0,0.0,1.0,0.0,0.0,0.0,1.0,-0.390816845,0.403586449474,9.62724546194,0.1,0.0,0.0,0.0,0.1,0.0,0.0,0.0,0.1
1505419080403399087,16012,1505419080403204984,-0.00045440338515,0.00111951869363,-0.538932052617,0.842348373808,1.0,0.0,0.0,0.0,1.0,0.0,0.0,0.0,100000.0,0.0885493904352,0.0425646342337,-0.0886500775814,1.0,0.0,0.0,0.0,1.0,0.0,0.0,0.0,1.0,-0.41018294245,0.446406354755,9.79836152792,0.1,0.0,0.0,0.0,0.1,0.0,0.0,0.0,0.1
1505419080411302144,16013,1505419080411076335,-0.00020946245078,0.00109750875587,-0.53895420485,0.842334325951,1.0,0.0,0.0,0.0,1.0,0.0,0.0,0.0,100000.0,0.0805935263634,0.0400936454535,-0.00142577290535,1.0,0.0,0.0,0.0,1.0,0.0,0.0,0.0,1.0,-0.488977240026,0.322070674598,9.84766230583,0.1,0.0,0.0,0.0,0.1,0.0,0.0,0.0,0.1
1505419080412039125,16014,1505419080411864562,-7.02264192255e-05,0.00103961650938,-0.5390866269,0.842249679705,1.0,0.0,0.0,0.0,1.0,0.0,0.0,0.0,100000.0,0.0524225980043,0.00162212084979,-0.0527440905571,1.0,0.0,0.0,0.0,1.0,0.0,0.0,0.0,1.0,-0.567433547974,0.357879211754,9.76576031446,0.1,0.0,0.0,0.0,0.1,0.0,0.0,0.0,0.1
1505419080416741431,16015,1505419080416572625,0.000107816890108,0.000977554904634,-0.539233795753,0.842155535682,1.0,0.0,0.0,0.0,1.0,0.0,0.0,0.0,100000.0,0.0722772777081,0.00420068111271,-0.0576225556433,1.0,0.0,0.0,0.0,1.0,0.0,0.0,0.0,1.0,-0.631900852919,0.233513704687,9.63596411943,0.1,0.0,0.0,0.0,0.1,0.0,0.0,0.0,0.1
1505419080421744043,16016,1505419080421466306,0.000147214598053,0.000941970156166,-0.539241198292,0.842150830365,1.0,0.0,0.0,0.0,1.0,0.0,0.0,0.0,100000.0,0.0216773767024,-0.0193160176277,0.00602635741234,1.0,0.0,0.0,0.0,1.0,0.0,0.0,0.0,1.0,-0.64606436342,0.24863085486,9.49799892902,0.1,0.0,0.0,0.0,0.1,0.0,0.0,0.0,0.1
1505419080426735144,16017,1505419080426573665,0.000245051697898,0.000900135062402,-0.539461728925,0.842009603705,1.0,0.0,0.0,0.0,1.0,0.0,0.0,0.0,100000.0,0.0378642529249,-0.00398291926831,-0.0939089953899,1.0,0.0,0.0,0.0,1.0,0.0,0.0,0.0,1.0,-0.639228269458,0.289614086971,9.42665500641,0.1,0.0,0.0,0.0,0.1,0.0,0.0,0.0,0.1
1505419080431854976,16018,1505419080431701334,0.000347357487407,0.000865683426228,-0.539469147496,0.842004850838,1.0,0.0,0.0,0.0,1.0,0.0,0.0,0.0,100000.0,0.0434784144163,-0.00270835775882,0.00504583166912,1.0,0.0,0.0,0.0,1.0,0.0,0.0,0.0,1.0,-0.587376578897,0.265314264596,9.43546361923,0.1,0.0,0.0,0.0,0.1,0.0,0.0,0.0,0.1
1505419080437786164,16019,1505419080437586978,0.000436219968899,0.000777666416186,-0.539594158714,0.841924788107,1.0,0.0,0.0,0.0,1.0,0.0,0.0,0.0,100000.0,0.044950671494,-0.0167304240167,-0.0499018579721,1.0,0.0,0.0,0.0,1.0,0.0,0.0,0.0,1.0,-0.558020949364,0.308337701112,9.34238146544,0.1,0.0,0.0,0.0,0.1,0.0,0.0,0.0,0.1
1505419080445272392,16020,1505419080445089955,0.000591208661552,0.000647202574467,-0.539763306761,0.841816372064,1.0,0.0,0.0,0.0,1.0,0.0,0.0,0.0,100000.0,0.0809632763267,-0.0187747869641,-0.0686133503914,1.0,0.0,0.0,0.0,1.0,0.0,0.0,0.0,1.0,-0.533634913713,0.303872517869,9.3946385026,0.1,0.0,0.0,0.0,0.1,0.0,0.0,0.0,0.1
1505419080450278127,16021,1505419080450135452,0.000791650415562,0.000539398914178,-0.539792805495,0.841797368417,1.0,0.0,0.0,0.0,1.0,0.0,0.0,0.0,100000.0,0.0882679969072,0.00320368167013,-0.00428038835526,1.0,0.0,0.0,0.0,1.0,0.0,0.0,0.0,1.0,-0.460535985976,0.282639591768,9.34031774998,0.1,0.0,0.0,0.0,0.1,0.0,0.0,0.0,0.1
1505419080452319539,16022,1505419080452183593,0.00100214878881,0.000414612411383,-0.539991253702,0.8416699292,1.0,0.0,0.0,0.0,1.0,0.0,0.0,0.0,100000.0,0.0941411629319,0.00623155664653,-0.0844009369612,1.0,0.0,0.0,0.0,1.0,0.0,0.0,0.0,1.0,-0.390249111503,0.32301338017,9.40658795834,0.1,0.0,0.0,0.0,0.1,0.0,0.0,0.0,0.1
1505419080456853085,16023,1505419080456593510,0.00135666346726,0.000353028263887,-0.540013479535,0.841655200635,1.0,0.0,0.0,0.0,1.0,0.0,0.0,0.0,100000.0,0.130573704839,0.057700522244,0.000105798244476,1.0,0.0,0.0,0.0,1.0,0.0,0.0,0.0,1.0,-0.369496446103,0.287871987373,9.45028229952,0.1,0.0,0.0,0.0,0.1,0.0,0.0,0.0,0.1
1505419080462132601,16024,1505419080461988433,0.00162415581099,0.000284973881808,-0.540079657461,0.841612288708,1.0,0.0,0.0,0.0,1.0,0.0,0.0,0.0,100000.0,0.104378163815,0.0319921001792,-0.0184560120106,1.0,0.0,0.0,0.0,1.0,0.0,0.0,0.0,1.0,-0.451760011166,0.276416829601,9.52585470676,0.1,0.0,0.0,0.0,0.1,0.0,0.0,0.0,0.1
1505419080467141747,16025,1505419080467056135,0.00184079691008,0.000218236574876,-0.540226654775,0.841517513371,1.0,0.0,0.0,0.0,1.0,0.0,0.0,0.0,100000.0,0.0904008969665,0.0187703408301,-0.060079574585,1.0,0.0,0.0,0.0,1.0,0.0,0.0,0.0,1.0,-0.494219657034,0.257589131594,9.64227968454,0.1,0.0,0.0,0.0,0.1,0.0,0.0,0.0,0.1
1505419080478556891,16026,1505419080478350387,0.0019918438325,0.000162700342782,-0.540248725104,0.841503013132,1.0,0.0,0.0,0.0,1.0,0.0,0.0,0.0,100000.0,0.0674648880959,0.00324772763997,-0.00210557878017,1.0,0.0,0.0,0.0,1.0,0.0,0.0,0.0,1.0,-0.579260811955,0.189267949015,9.71878552437,0.1,0.0,0.0,0.0,0.1,0.0,0.0,0.0,0.1
1505419080478568154,16027,1505419080478389516,0.00197880870893,7.71977521927e-05,-0.540483627126,0.841352201617,1.0,0.0,0.0,0.0,1.0,0.0,0.0,0.0,100000.0,0.017699226737,-0.0408522412181,-0.0988126918674,1.0,0.0,0.0,0.0,1.0,0.0,0.0,0.0,1.0,-0.577089325339,0.177915287018,9.65060756207,0.1,0.0,0.0,0.0,0.1,0.0,0.0,0.0,0.1
1505419080482036370,16028,1505419080481829811,0.00200975767253,0.000108753757641,-0.540667213506,0.841234160793,1.0,0.0,0.0,0.0,1.0,0.0,0.0,0.0,100000.0,0.0172047112137,0.0134289534763,-0.0788004398346,1.0,0.0,0.0,0.0,1.0,0.0,0.0,0.0,1.0,-0.527291529626,0.0950518433005,9.56864365339,0.1,0.0,0.0,0.0,0.1,0.0,0.0,0.0,0.1
1505419080487462468,16029,1505419080487255235,0.00187869489639,0.000130433847085,-0.540813952693,0.84114013224,1.0,0.0,0.0,0.0,1.0,0.0,0.0,0.0,100000.0,-0.0401774682105,-0.0301660969853,-0.0570426881313,1.0,0.0,0.0,0.0,1.0,0.0,0.0,0.0,1.0,-0.572623101622,0.0955840729177,9.36716883183,0.1,0.0,0.0,0.0,0.1,0.0,0.0,0.0,0.1
1505419080492053570,16030,1505419080491835251,0.00178756024656,0.000229870084886,-0.541151600546,0.840923121941,1.0,0.0,0.0,0.0,1.0,0.0,0.0,0.0,100000.0,-0.0440427660942,0.00622000265867,-0.151266813278,1.0,0.0,0.0,0.0,1.0,0.0,0.0,0.0,1.0,-0.515265261382,0.155567703396,9.40312643051,0.1,0.0,0.0,0.0,0.1,0.0,0.0,0.0,0.1
1505419080497106518,16031,1505419080496952536,0.00164394872147,0.000280611231819,-0.541246945905,0.840862035199,1.0,0.0,0.0,0.0,1.0,0.0,0.0,0.0,100000.0,-0.0531473308802,-0.0244803633541,-0.0348518490791,1.0,0.0,0.0,0.0,1.0,0.0,0.0,0.0,1.0,-0.567335487902,0.144643442705,9.38802620173,0.1,0.0,0.0,0.0,0.1,0.0,0.0,0.0,0.1
1505419080503538128,16032,1505419080503364357,0.0013897375188,0.000288211995451,-0.541496275809,0.840701950068,1.0,0.0,0.0,0.0,1.0,0.0,0.0,0.0,100000.0,-0.0828903093934,-0.0544137358665,-0.106543987989,1.0,0.0,0.0,0.0,1.0,0.0,0.0,0.0,1.0,-0.489667603374,0.202873856947,9.4348976016,0.1,0.0,0.0,0.0,0.1,0.0,0.0,0.0,0.1
1505419080511125695,16033,1505419080510759837,0.00125613573048,0.000322126070988,-0.541686966802,0.840579293318,1.0,0.0,0.0,0.0,1.0,0.0,0.0,0.0,100000.0,-0.0523742213845,-0.0248211696744,-0.08195322752,1.0,0.0,0.0,0.0,1.0,0.0,0.0,0.0,1.0,-0.495744042099,0.27486281842,9.42840679884,0.1,0.0,0.0,0.0,0.1,0.0,0.0,0.0,0.1
1505419080512845692,16034,1505419080512634527,0.00106166943083,0.000374765172427,-0.541694221439,0.840574864524,1.0,0.0,0.0,0.0,1.0,0.0,0.0,0.0,100000.0,-0.0726694241166,-0.0258774012327,0.00795346498489,1.0,0.0,0.0,0.0,1.0,0.0,0.0,0.0,1.0,-0.443020033091,0.207926524431,9.33490874767,0.1,0.0,0.0,0.0,0.1,0.0,0.0,0.0,0.1
1505419080517068531,16035,1505419080516895902,0.00100996639094,0.000439007537456,-0.541950931826,0.840409408998,1.0,0.0,0.0,0.0,1.0,0.0,0.0,0.0,100000.0,-0.0341157093644,0.00797237548977,-0.112168937922,1.0,0.0,0.0,0.0,1.0,0.0,0.0,0.0,1.0,-0.433046162874,0.319481939822,9.38903381824,0.1,0.0,0.0,0.0,0.1,0.0,0.0,0.0,0.1
1505419080522101894,16036,1505419080521925499,0.00102838692547,0.000499840135771,-0.541921547178,0.840428301097,1.0,0.0,0.0,0.0,1.0,0.0,0.0,0.0,100000.0,-0.00238402374089,0.0252385884523,0.0280795395374,1.0,0.0,0.0,0.0,1.0,0.0,0.0,0.0,1.0,-0.396138009429,0.214568049833,9.47602646351,0.1,0.0,0.0,0.0,0.1,0.0,0.0,0.0,0.1
1505419080527125529,16037,1505419080526980984,0.00107931018734,0.000498055464103,-0.542031571231,0.840357282838,1.0,0.0,0.0,0.0,1.0,0.0,0.0,0.0,100000.0,0.014390040189,0.0114685827866,-0.0431533157825,1.0,0.0,0.0,0.0,1.0,0.0,0.0,0.0,1.0,-0.408611316234,0.293702728301,9.69989140034,0.1,0.0,0.0,0.0,0.1,0.0,0.0,0.0,0.1
1505419080533831351,16038,1505419080533617803,0.00120216799803,0.000543276673509,-0.542178304919,0.840262426459,1.0,0.0,0.0,0.0,1.0,0.0,0.0,0.0,100000.0,0.0353732258081,0.0407932139933,-0.0604616552591,1.0,0.0,0.0,0.0,1.0,0.0,0.0,0.0,1.0,-0.400186765939,0.2166320391,9.88124017715,0.1,0.0,0.0,0.0,0.1,0.0,0.0,0.0,0.1
1505419080537521402,16039,1505419080537351696,0.00118514669397,0.000710043841991,-0.542178228942,0.840262375289,1.0,0.0,0.0,0.0,1.0,0.0,0.0,0.0,100000.0,-0.0375347435474,0.052643597126,0.0137909650803,1.0,0.0,0.0,0.0,1.0,0.0,0.0,0.0,1.0,-0.425257907808,0.148530880176,9.83405919075,0.1,0.0,0.0,0.0,0.1,0.0,0.0,0.0,0.1
1505419080544154822,16040,1505419080543976584,0.00112710459019,0.000892663279111,-0.542529974567,0.84003521324,1.0,0.0,0.0,0.0,1.0,0.0,0.0,0.0,100000.0,-0.0542517155409,0.0435857102275,-0.156954661012,1.0,0.0,0.0,0.0,1.0,0.0,0.0,0.0,1.0,-0.516054305434,0.209561400488,9.61838719845,0.1,0.0,0.0,0.0,0.1,0.0,0.0,0.0,0.1
1505419080547360821,16041,1505419080547173305,0.000934462104665,0.00117286905398,-0.542705522432,0.839921702946,1.0,0.0,0.0,0.0,1.0,0.0,0.0,0.0,100000.0,-0.109638549387,0.0472617298365,-0.0753439068794,1.0,0.0,0.0,0.0,1.0,0.0,0.0,0.0,1.0,-0.471121362597,-0.0418695011176,9.35215388536,0.1,0.0,0.0,0.0,0.1,0.0,0.0,0.0,0.1
1505419080552309973,16042,1505419080552116552,0.000598221309891,0.00135905524739,-0.542998220322,0.839732533505,1.0,0.0,0.0,0.0,1.0,0.0,0.0,0.0,100000.0,-0.145635336637,-0.015703342855,-0.126707077026,1.0,0.0,0.0,0.0,1.0,0.0,0.0,0.0,1.0,-0.537791003287,0.0499025093392,9.16382188797,0.1,0.0,0.0,0.0,0.1,0.0,0.0,0.0,0.1
1505419080557248736,16043,1505419080557046967,0.000281652684248,0.00154329325977,-0.543371403873,0.839490950738,1.0,0.0,0.0,0.0,1.0,0.0,0.0,0.0,100000.0,-0.130368888378,-0.00561422389001,-0.167341649532,1.0,0.0,0.0,0.0,1.0,0.0,0.0,0.0,1.0,-0.418162754178,0.00369916423224,9.18906311989,0.1,0.0,0.0,0.0,0.1,0.0,0.0,0.0,0.1
1505419080562663270,16044,1505419080562469429,-5.95661974852e-05,0.00172263243061,-0.543414758081,0.839462583853,1.0,0.0,0.0,0.0,1.0,0.0,0.0,0.0,100000.0,-0.142699509859,-0.0136765995994,-0.0087895989418,1.0,0.0,0.0,0.0,1.0,0.0,0.0,0.0,1.0,-0.385162290931,0.0192903391086,9.2231579423,0.1,0.0,0.0,0.0,0.1,0.0,0.0,0.0,0.1
1505419080567539235,16045,1505419080567402827,-0.000255948958915,0.00178782930183,-0.543678214233,0.839291807136,1.0,0.0,0.0,0.0,1.0,0.0,0.0,0.0,100000.0,-0.0745779275894,-0.0166942365468,-0.117515444756,1.0,0.0,0.0,0.0,1.0,0.0,0.0,0.0,1.0,-0.328197859228,0.166681038216,9.29681909084,0.1,0.0,0.0,0.0,0.1,0.0,0.0,0.0,0.1
1505419080577717905,16046,1505419080577499331,-0.000330847675453,0.00178443701159,-0.543722101862,0.839263356921,1.0,0.0,0.0,0.0,1.0,0.0,0.0,0.0,100000.0,-0.0211278889328,-0.00952213071287,-0.00999909639359,1.0,0.0,0.0,0.0,1.0,0.0,0.0,0.0,1.0,-0.298025056347,0.171247439459,9.42771285772,0.1,0.0,0.0,0.0,0.1,0.0,0.0,0.0,0.1
1505419080578989916,16047,1505419080578820178,-0.000322372176513,0.00168529056671,-0.543678422297,0.839291861631,1.0,0.0,0.0,0.0,1.0,0.0,0.0,0.0,100000.0,0.0161725282669,-0.0240024589002,0.0332618057728,1.0,0.0,0.0,0.0,1.0,0.0,0.0,0.0,1.0,-0.319242083281,0.370394758135,9.46732883453,0.1,0.0,0.0,0.0,0.1,0.0,0.0,0.0,0.1
1505419080583692911,16048,1505419080583515847,-0.000205791779811,0.00149564398427,-0.543854619703,0.839178093926,1.0,0.0,0.0,0.0,1.0,0.0,0.0,0.0,100000.0,0.0677948221564,-0.0368022657931,-0.0709087997675,1.0,0.0,0.0,0.0,1.0,0.0,0.0,0.0,1.0,-0.372400170565,0.452875873446,9.61287889481,0.1,0.0,0.0,0.0,0.1,0.0,0.0,0.0,0.1
1505419080587711826,16049,1505419080587573966,-0.000122958971897,0.00143134268013,-0.543679056717,0.839291975076,1.0,0.0,0.0,0.0,1.0,0.0,0.0,0.0,100000.0,0.0296152830124,-0.00525809079409,0.0949010252953,1.0,0.0,0.0,0.0,1.0,0.0,0.0,0.0,1.0,-0.439791680872,0.454025505483,9.67204555273,0.1,0.0,0.0,0.0,0.1,0.0,0.0,0.0,0.1
1505419080593090635,16050,1505419080592974761,-0.000117108596176,0.00137576722362,-0.543847573019,0.839182882852,1.0,0.0,0.0,0.0,1.0,0.0,0.0,0.0,100000.0,-0.00205504521728,-0.0256037153304,-0.0704880580306,1.0,0.0,0.0,0.0,1.0,0.0,0.0,0.0,1.0,-0.526265914738,0.461969174445,9.69688782692,0.1,0.0,0.0,0.0,0.1,0.0,0.0,0.0,0.1
1505419080599142661,16051,1505419080598995586,-0.000114364707469,0.00136371195973,-0.54395011743,0.83911643826,1.0,0.0,0.0,0.0,1.0,0.0,0.0,0.0,100000.0,0.00370838493109,-0.0100418869406,-0.0361740738153,1.0,0.0,0.0,0.0,1.0,0.0,0.0,0.0,1.0,-0.537699149549,0.263451470062,9.84804081917,0.1,0.0,0.0,0.0,0.1,0.0,0.0,0.0,0.1
1505419080602327951,16052,1505419080602192024,-0.000290783991534,0.00154058550905,-0.544022929231,0.839068885439,1.0,0.0,0.0,0.0,1.0,0.0,0.0,0.0,100000.0,-0.092160589993,0.0140061331913,-0.024406015873,1.0,0.0,0.0,0.0,1.0,0.0,0.0,0.0,1.0,-0.549196455628,0.163262334093,9.64438253641,0.1,0.0,0.0,0.0,0.1,0.0,0.0,0.0,0.1
1505419080612280072,16053,1505419080612067458,-0.00041670824585,0.00160209036224,-0.544403453441,0.838821875932,1.0,0.0,0.0,0.0,1.0,0.0,0.0,0.0,100000.0,-0.0553317889571,-0.0165211446583,-0.171291708946,1.0,0.0,0.0,0.0,1.0,0.0,0.0,0.0,1.0,-0.598298119754,0.193701023608,9.46730546951,0.1,0.0,0.0,0.0,0.1,0.0,0.0,0.0,0.1
1505419080613114051,16054,1505419080612996790,-0.000647521133275,0.00188736342074,-0.544505116066,0.838755147319,1.0,0.0,0.0,0.0,1.0,0.0,0.0,0.0,100000.0,-0.131607726216,0.0317930616438,-0.0383128859103,1.0,0.0,0.0,0.0,1.0,0.0,0.0,0.0,1.0,-0.602077849954,0.0704507901333,9.11807726622,0.1,0.0,0.0,0.0,0.1,0.0,0.0,0.0,0.1
1505419080617524658,16055,1505419080617362173,-0.00100016425936,0.00209647358615,-0.544855600699,0.838526671524,1.0,0.0,0.0,0.0,1.0,0.0,0.0,0.0,100000.0,-0.158104628325,-0.0209361407906,-0.156046956778,1.0,0.0,0.0,0.0,1.0,0.0,0.0,0.0,1.0,-0.667508268356,0.168648975343,8.82527734041,0.1,0.0,0.0,0.0,0.1,0.0,0.0,0.0,0.1
1505419080623048323,16056,1505419080622884246,-0.00113913369937,0.00225014593351,-0.54515502439,0.838331461059,1.0,0.0,0.0,0.0,1.0,0.0,0.0,0.0,100000.0,-0.0773111656308,0.0103323124349,-0.129292190075,1.0,0.0,0.0,0.0,1.0,0.0,0.0,0.0,1.0,-0.625770309567,0.166269156709,8.98605730534,0.1,0.0,0.0,0.0,0.1,0.0,0.0,0.0,0.1
1505419080628183032,16057,1505419080627992693,-0.00138009374955,0.00240740438763,-0.545315315145,0.838226405462,1.0,0.0,0.0,0.0,1.0,0.0,0.0,0.0,100000.0,-0.1131850034,-0.00503621529788,-0.0669399499893,1.0,0.0,0.0,0.0,1.0,0.0,0.0,0.0,1.0,-0.499545056373,0.144890929386,8.94094295502,0.1,0.0,0.0,0.0,0.1,0.0,0.0,0.0,0.1
1505419080634894093,16058,1505419080634722055,-0.0013195018157,0.00227553499576,-0.545688781372,0.837983791455,1.0,0.0,0.0,0.0,1.0,0.0,0.0,0.0,100000.0,0.0398610085249,-0.033615168184,-0.167966961861,1.0,0.0,0.0,0.0,1.0,0.0,0.0,0.0,1.0,-0.479325624555,0.392653372139,9.36156882048,0.1,0.0,0.0,0.0,0.1,0.0,0.0,0.0,0.1
1505419080646327249,16059,1505419080646136012,-0.00120899655682,0.00217290584022,-0.545871996069,0.83786489407,1.0,0.0,0.0,0.0,1.0,0.0,0.0,0.0,100000.0,0.0556627213955,-0.0080358767882,-0.0750655010343,1.0,0.0,0.0,0.0,1.0,0.0,0.0,0.0,1.0,-0.351689233631,0.289934370294,9.46642285585,0.1,0.0,0.0,0.0,0.1,0.0,0.0,0.0,0.1
1505419080649564446,16060,1505419080648543597,-0.00107033315832,0.00193750532672,-0.546143309565,0.837688835951,1.0,0.0,0.0,0.0,1.0,0.0,0.0,0.0,100000.0,0.0785617977381,-0.0423892810941,-0.116758227348,1.0,0.0,0.0,0.0,1.0,0.0,0.0,0.0,1.0,-0.348769153655,0.513938712329,9.69532412291,0.1,0.0,0.0,0.0,0.1,0.0,0.0,0.0,0.1
1505419080649690217,16061,1505419080649593243,-0.000701600409136,0.00168741038133,-0.546480342703,0.837469937038,1.0,0.0,0.0,0.0,1.0,0.0,0.0,0.0,100000.0,0.169466674328,-0.00355034321547,-0.150221899152,1.0,0.0,0.0,0.0,1.0,0.0,0.0,0.0,1.0,-0.374727618694,0.408664106578,9.81097688675,0.1,0.0,0.0,0.0,0.1,0.0,0.0,0.0,0.1
1505419080653677998,16062,1505419080653468177,-0.000550414018879,0.00159942624372,-0.546612140581,0.83738420492,1.0,0.0,0.0,0.0,1.0,0.0,0.0,0.0,100000.0,0.0597069635987,0.00962383486331,-0.0516210794449,1.0,0.0,0.0,0.0,1.0,0.0,0.0,0.0,1.0,-0.36244437173,0.380072841793,9.7270725131,0.1,0.0,0.0,0.0,0.1,0.0,0.0,0.0,0.1
1505419080657586449,16063,1505419080657438292,-0.000357702070204,0.00149490451706,-0.54688282031,0.837207750896,1.0,0.0,0.0,0.0,1.0,0.0,0.0,0.0,100000.0,0.0837147310376,-0.00127803534269,-0.115106940269,1.0,0.0,0.0,0.0,1.0,0.0,0.0,0.0,1.0,-0.504364383966,0.338945476711,9.73890163898,0.1,0.0,0.0,0.0,0.1,0.0,0.0,0.0,0.1
1505419080663317845,16064,1505419080663175147,-0.000372629693529,0.00156744042647,-0.547028802389,0.83711223479,1.0,0.0,0.0,0.0,1.0,0.0,0.0,0.0,100000.0,-0.0165805909783,0.0179454535246,-0.0604252815247,1.0,0.0,0.0,0.0,1.0,0.0,0.0,0.0,1.0,-0.479027209431,0.169800925627,9.52773033381,0.1,0.0,0.0,0.0,0.1,0.0,0.0,0.0,0.1
1505419080667754746,16065,1505419080667547326,-0.000499626829158,0.00172368592843,-0.547174454642,0.837016663793,1.0,0.0,0.0,0.0,1.0,0.0,0.0,0.0,100000.0,-0.0693277940154,0.0157107096165,-0.0581898130476,1.0,0.0,0.0,0.0,1.0,0.0,0.0,0.0,1.0,-0.561721092463,0.0769568759948,9.41643047333,0.1,0.0,0.0,0.0,0.1,0.0,0.0,0.0,0.1
1505419080678226611,16066,1505419080677999034,-0.000473283889404,0.00181118645036,-0.547407951167,0.836863806485,1.0,0.0,0.0,0.0,1.0,0.0,0.0,0.0,100000.0,0.00527413934469,0.0288998950273,-0.100309312344,1.0,0.0,0.0,0.0,1.0,0.0,0.0,0.0,1.0,-0.530228622258,0.00855795281241,9.18911861181,0.1,0.0,0.0,0.0,0.1,0.0,0.0,0.0,0.1
1505419080678237493,16067,1505419080678040036,-0.000522081333966,0.00189556769339,-0.547561088087,0.836763400889,1.0,0.0,0.0,0.0,1.0,0.0,0.0,0.0,100000.0,-0.0195277687162,0.0127609726042,-0.060756534338,1.0,0.0,0.0,0.0,1.0,0.0,0.0,0.0,1.0,-0.477047717571,-0.0498288958333,9.1219751358,0.1,0.0,0.0,0.0,0.1,0.0,0.0,0.0,0.1
1505419080682756134,16068,1505419080682579586,-0.000424017055728,0.00178998647235,-0.547722015542,0.836658359098,1.0,0.0,0.0,0.0,1.0,0.0,0.0,0.0,100000.0,0.0701959878206,-0.0168433263898,-0.0636109411716,1.0,0.0,0.0,0.0,1.0,0.0,0.0,0.0,1.0,-0.490996598452,0.020502057299,9.13124520779,0.1,0.0,0.0,0.0,0.1,0.0,0.0,0.0,0.1
1505419080688205016,16069,1505419080688015262,-0.000320641128883,0.00162875277098,-0.547912273635,0.836534150381,1.0,0.0,0.0,0.0,1.0,0.0,0.0,0.0,100000.0,0.0717049017549,-0.034243773669,-0.0804609358311,1.0,0.0,0.0,0.0,1.0,0.0,0.0,0.0,1.0,-0.448132117093,0.186661015078,9.09987299442,0.1,0.0,0.0,0.0,0.1,0.0,0.0,0.0,0.1
1505419080692780801,16070,1505419080692641513,-0.00030915027614,0.00142313964109,-0.547993023531,0.836481634742,1.0,0.0,0.0,0.0,1.0,0.0,0.0,0.0,100000.0,0.0512418486178,-0.0686553120613,-0.0274662971497,1.0,0.0,0.0,0.0,1.0,0.0,0.0,0.0,1.0,-0.485802408308,0.189472538978,9.0973957181,0.1,0.0,0.0,0.0,0.1,0.0,0.0,0.0,0.1
1505419080699536210,16071,1505419080699364299,-0.000164524771204,0.00121374382993,-0.54808835527,0.836419544592,1.0,0.0,0.0,0.0,1.0,0.0,0.0,0.0,100000.0,0.082364782691,-0.0478966496885,-0.0328136086464,1.0,0.0,0.0,0.0,1.0,0.0,0.0,0.0,1.0,-0.543808591366,0.446902532876,8.90512320995,0.1,0.0,0.0,0.0,0.1,0.0,0.0,0.0,0.1
1505419080703141157,16072,1505419080702961784,-0.000138440966563,0.000998556651717,-0.548234637975,0.836323959625,1.0,0.0,0.0,0.0,1.0,0.0,0.0,0.0,100000.0,0.0592064931989,-0.0725814625621,-0.0581465959549,1.0,0.0,0.0,0.0,1.0,0.0,0.0,0.0,1.0,-0.563860306144,0.218777641654,9.0291102767,0.1,0.0,0.0,0.0,0.1,0.0,0.0,0.0,0.1
1505419080712307376,16073,1505419080712079399,-9.9452146241e-05,0.000962551132521,-0.54822010889,0.836333531441,1.0,0.0,0.0,0.0,1.0,0.0,0.0,0.0,100000.0,0.0246448367834,-0.00676322728395,0.0209205448627,1.0,0.0,0.0,0.0,1.0,0.0,0.0,0.0,1.0,-0.434000368416,0.210747722909,9.09099311829,0.1,0.0,0.0,0.0,0.1,0.0,0.0,0.0,0.1
1505419080713541009,16074,1505419080713343010,-6.24624479538e-05,0.000907184501925,-0.548453755289,0.836180394068,1.0,0.0,0.0,0.0,1.0,0.0,0.0,0.0,100000.0,0.038817204535,-0.00806931871921,-0.101510435343,1.0,0.0,0.0,0.0,1.0,0.0,0.0,0.0,1.0,-0.396159147471,-0.00480451396434,9.26951355934,0.1,0.0,0.0,0.0,0.1,0.0,0.0,0.0,0.1
1505419080717948271,16075,1505419080717766744,-0.000180444738147,0.00117257247019,-0.548584667569,0.83609416636,1.0,0.0,0.0,0.0,1.0,0.0,0.0,0.0,100000.0,-0.0755113884807,0.0677184760571,-0.0492822229862,1.0,0.0,0.0,0.0,1.0,0.0,0.0,0.0,1.0,-0.272589109838,-0.1293575624,9.45972468853,0.1,0.0,0.0,0.0,0.1,0.0,0.0,0.0,0.1
1505419080724082938,16076,1505419080723907396,-0.000286021674608,0.00140904330637,-0.548722809433,0.836003116739,1.0,0.0,0.0,0.0,1.0,0.0,0.0,0.0,100000.0,-0.0749445408583,0.0605528876185,-0.0560478270054,1.0,0.0,0.0,0.0,1.0,0.0,0.0,0.0,1.0,-0.35662958473,0.0282061960083,9.42258248329,0.1,0.0,0.0,0.0,0.1,0.0,0.0,0.0,0.1
1505419080729513269,16077,1505419080729293444,-0.000437139873944,0.00165502274755,-0.549079675149,0.835768257441,1.0,0.0,0.0,0.0,1.0,0.0,0.0,0.0,100000.0,-0.0973061546683,0.0506242327392,-0.158271938562,1.0,0.0,0.0,0.0,1.0,0.0,0.0,0.0,1.0,-0.405969462544,0.103882379085,9.64694159031,0.1,0.0,0.0,0.0,0.1,0.0,0.0,0.0,0.1
1505419080733080786,16078,1505419080732899189,-0.000557735211332,0.00196404325161,-0.549115275603,0.835744126851,1.0,0.0,0.0,0.0,1.0,0.0,0.0,0.0,100000.0,-0.109647043049,0.0728496313095,-0.00608584284782,1.0,0.0,0.0,0.0,1.0,0.0,0.0,0.0,1.0,-0.483408369869,0.263553126156,9.39123421907,0.1,0.0,0.0,0.0,0.1,0.0,0.0,0.0,0.1
1505419080737997711,16079,1505419080737796471,-0.000409578323781,0.0020136088615,-0.549465278157,0.835514024853,1.0,0.0,0.0,0.0,1.0,0.0,0.0,0.0,100000.0,0.0365254096687,0.0387454107404,-0.153017282486,1.0,0.0,0.0,0.0,1.0,0.0,0.0,0.0,1.0,-0.571560723335,0.321695848554,9.22042540312,0.1,0.0,0.0,0.0,0.1,0.0,0.0,0.0,0.1
1505419080744274872,16080,1505419080744081115,-0.000279211863144,0.00214761040729,-0.549661827077,0.835384453808,1.0,0.0,0.0,0.0,1.0,0.0,0.0,0.0,100000.0,0.0110019519925,0.0648376345634,-0.0839115381241,1.0,0.0,0.0,0.0,1.0,0.0,0.0,0.0,1.0,-0.565373373777,0.258748474717,8.84775857925,0.1,0.0,0.0,0.0,0.1,0.0,0.0,0.0,0.1
1505419080747955835,16081,1505419080747780144,-1.21369829109e-05,0.00204514753541,-0.54974972165,0.8353269185,1.0,0.0,0.0,0.0,1.0,0.0,0.0,0.0,100000.0,0.107312805951,0.0167280863971,-0.0283316373825,1.0,0.0,0.0,0.0,1.0,0.0,0.0,0.0,1.0,-0.579383587837,0.315064892173,8.64917926788,0.1,0.0,0.0,0.0,0.1,0.0,0.0,0.0,0.1
1505419080755321508,16082,1505419080755164499,0.000258540199617,0.00186750795559,-0.550180409251,0.835043689185,1.0,0.0,0.0,0.0,1.0,0.0,0.0,0.0,100000.0,0.125438079238,-0.00724807940423,-0.194331496954,1.0,0.0,0.0,0.0,1.0,0.0,0.0,0.0,1.0,-0.538201643527,0.320708822459,8.72158337831,0.1,0.0,0.0,0.0,0.1,0.0,0.0,0.0,0.1
1505419080758197419,16083,1505419080758035116,0.000388006691717,0.00166729499591,-0.550231919416,0.835010122354,1.0,0.0,0.0,0.0,1.0,0.0,0.0,0.0,100000.0,0.0890599042177,-0.0347933359444,-0.0132409930229,1.0,0.0,0.0,0.0,1.0,0.0,0.0,0.0,1.0,-0.368814662099,0.260836029798,8.77573707104,0.1,0.0,0.0,0.0,0.1,0.0,0.0,0.0,0.1
1505419080763486390,16084,1505419080763338077,0.000690788037323,0.0013006501669,-0.550677206984,0.834716984869,1.0,0.0,0.0,0.0,1.0,0.0,0.0,0.0,100000.0,0.179014191031,-0.0491365268826,-0.20097219944,1.0,0.0,0.0,0.0,1.0,0.0,0.0,0.0,1.0,-0.317746648937,0.318268747628,9.02965818644,0.1,0.0,0.0,0.0,0.1,0.0,0.0,0.0,0.1
1505419080768051248,16085,1505419080767875972,0.000735680920095,0.00111421431976,-0.550997942921,0.834505532754,1.0,0.0,0.0,0.0,1.0,0.0,0.0,0.0,100000.0,0.0668558776379,-0.0433147847652,-0.139989972115,1.0,0.0,0.0,0.0,1.0,0.0,0.0,0.0,1.0,-0.244921274483,0.140502376109,9.21579854488,0.1,0.0,0.0,0.0,0.1,0.0,0.0,0.0,0.1
1505419080778311613,16086,1505419080778090597,0.000845333814547,0.000979042637718,-0.551114655862,0.834428524788,1.0,0.0,0.0,0.0,1.0,0.0,0.0,0.0,100000.0,0.0684229433537,-0.00955928489566,-0.0450574755669,1.0,0.0,0.0,0.0,1.0,0.0,0.0,0.0,1.0,-0.206927542016,0.20818368569,9.54664957523,0.1,0.0,0.0,0.0,0.1,0.0,0.0,0.0,0.1
1505419080778323529,16087,1505419080778130985,0.000858144574577,0.000918167607413,-0.551522432297,0.834159113856,1.0,0.0,0.0,0.0,1.0,0.0,0.0,0.0,100000.0,0.0242502614856,-0.00964725483209,-0.183275282383,1.0,0.0,0.0,0.0,1.0,0.0,0.0,0.0,1.0,-0.309813019633,0.200434749573,9.66577554941,0.1,0.0,0.0,0.0,0.1,0.0,0.0,0.0,0.1
1505419080783371005,16088,1505419080783149515,0.000806782924409,0.00104628579242,-0.551485897868,0.834183168639,1.0,0.0,0.0,0.0,1.0,0.0,0.0,0.0,100000.0,-0.0381756611168,0.0335262268782,0.0295307040215,1.0,0.0,0.0,0.0,1.0,0.0,0.0,0.0,1.0,-0.324005699903,0.12377341371,9.58049497604,0.1,0.0,0.0,0.0,0.1,0.0,0.0,0.0,0.1
1505419080789623968,16089,1505419080789500935,0.000850538468708,0.00108008611858,-0.551733340408,0.834019442867,1.0,0.0,0.0,0.0,1.0,0.0,0.0,0.0,100000.0,0.00999218039215,0.0127065945417,-0.10638988018,1.0,0.0,0.0,0.0,1.0,0.0,0.0,0.0,1.0,-0.558626687527,0.238846624643,9.31881492138,0.1,0.0,0.0,0.0,0.1,0.0,0.0,0.0,0.1
1505419080793867305,16090,1505419080793656407,0.000768085912523,0.001207882456,-0.551936907942,0.833884644729,1.0,0.0,0.0,0.0,1.0,0.0,0.0,0.0,100000.0,-0.0474527701735,0.0132906902581,-0.0832978188992,1.0,0.0,0.0,0.0,1.0,0.0,0.0,0.0,1.0,-0.654721322656,0.0672273892909,9.05797775984,0.1,0.0,0.0,0.0,0.1,0.0,0.0,0.0,0.1
1505419080799039084,16091,1505419080798821351,0.00064624802266,0.00140360609684,-0.551834663611,0.833952106713,1.0,0.0,0.0,0.0,1.0,0.0,0.0,0.0,100000.0,-0.0790723562241,0.0201158653945,0.0602483153343,1.0,0.0,0.0,0.0,1.0,0.0,0.0,0.0,1.0,-0.741754199564,0.163240173832,8.99026651382,0.1,0.0,0.0,0.0,0.1,0.0,0.0,0.0,0.1
1505419080803267576,16092,1505419080803033664,0.000568828519822,0.00153869409342,-0.552103641781,0.833773876771,1.0,0.0,0.0,0.0,1.0,0.0,0.0,0.0,100000.0,-0.0493266358972,0.00730195175856,-0.115106202662,1.0,0.0,0.0,0.0,1.0,0.0,0.0,0.0,1.0,-0.766284769773,0.171332411468,8.80529265404,0.1,0.0,0.0,0.0,0.1,0.0,0.0,0.0,0.1
1505419080813774085,16093,1505419080813556832,0.000444319514579,0.00177800273327,-0.55195024353,0.833875032576,1.0,0.0,0.0,0.0,1.0,0.0,0.0,0.0,100000.0,-0.0890726000071,0.0387828834355,0.0842827409506,1.0,0.0,0.0,0.0,1.0,0.0,0.0,0.0,1.0,-0.627381400764,0.187823205814,8.746558249,0.1,0.0,0.0,0.0,0.1,0.0,0.0,0.0,0.1
1505419080813783126,16094,1505419080813590391,0.000614097492363,0.00174942686752,-0.552074111115,0.833792982836,1.0,0.0,0.0,0.0,1.0,0.0,0.0,0.0,100000.0,0.053455080837,0.0233710482717,-0.0453785508871,1.0,0.0,0.0,0.0,1.0,0.0,0.0,0.0,1.0,-0.545826270431,0.381098456681,8.54596545696,0.1,0.0,0.0,0.0,0.1,0.0,0.0,0.0,0.1
1505419080818420998,16095,1505419080818267385,0.000779675455851,0.00158754589474,-0.552329213571,0.833624202888,1.0,0.0,0.0,0.0,1.0,0.0,0.0,0.0,100000.0,0.0894014686346,-0.0175728481263,-0.110109299421,1.0,0.0,0.0,0.0,1.0,0.0,0.0,0.0,1.0,-0.42332226187,0.320145944506,8.6658344388,0.1,0.0,0.0,0.0,0.1,0.0,0.0,0.0,0.1
1505419080823293651,16096,1505419080823139689,0.00105349576274,0.00144800043786,-0.552285960053,0.833652812488,1.0,0.0,0.0,0.0,1.0,0.0,0.0,0.0,100000.0,0.120742417872,0.0196309387684,0.0329749435186,1.0,0.0,0.0,0.0,1.0,0.0,0.0,0.0,1.0,-0.327500960976,0.354903457314,8.85660691261,0.1,0.0,0.0,0.0,0.1,0.0,0.0,0.0,0.1
1505419080828615156,16097,1505419080828435874,0.00130919337451,0.00112127317636,-0.552744826448,0.83334877788,1.0,0.0,0.0,0.0,1.0,0.0,0.0,0.0,100000.0,0.154092997313,-0.042961396277,-0.207830280066,1.0,0.0,0.0,0.0,1.0,0.0,0.0,0.0,1.0,-0.271483141184,0.334232313931,9.10986270905,0.1,0.0,0.0,0.0,0.1,0.0,0.0,0.0,0.1
1505419080834858176,16098,1505419080834583541,0.00140109395963,0.0011650184356,-0.552766645258,0.833334096001,1.0,0.0,0.0,0.0,1.0,0.0,0.0,0.0,100000.0,0.0222501140088,0.0449153408408,0.00209432840347,1.0,0.0,0.0,0.0,1.0,0.0,0.0,0.0,1.0,-0.225612713397,0.242184080556,9.32809083462,0.1,0.0,0.0,0.0,0.1,0.0,0.0,0.0,0.1
1505419080844765971,16099,1505419080844561057,0.00150076184213,0.00114054779699,-0.55304306708,0.833150534309,1.0,0.0,0.0,0.0,1.0,0.0,0.0,0.0,100000.0,0.0395197197795,0.0202776677907,-0.118962705135,1.0,0.0,0.0,0.0,1.0,0.0,0.0,0.0,1.0,-0.326966486126,0.308886121958,9.36546961069,0.1,0.0,0.0,0.0,0.1,0.0,0.0,0.0,0.1
1505419080844775413,16100,1505419080844592802,0.00141623185651,0.00134306923538,-0.553406269208,0.832909173712,1.0,0.0,0.0,0.0,1.0,0.0,0.0,0.0,100000.0,-0.0782777220011,0.0480384379625,-0.161715984344,1.0,0.0,0.0,0.0,1.0,0.0,0.0,0.0,1.0,-0.410988013446,0.345393382758,9.39145034552,0.1,0.0,0.0,0.0,0.1,0.0,0.0,0.0,0.1
1505419080850076158,16101,1505419080849798123,0.00136988132284,0.00160435785371,-0.553427635294,0.832894592343,1.0,0.0,0.0,0.0,1.0,0.0,0.0,0.0,100000.0,-0.0708862021565,0.0680054426193,0.00362181663513,1.0,0.0,0.0,0.0,1.0,0.0,0.0,0.0,1.0,-0.591325194389,0.268429077417,9.20584738255,0.1,0.0,0.0,0.0,0.1,0.0,0.0,0.0,0.1
1505419080853198857,16102,1505419080853062852,0.00128599044255,0.0016809611629,-0.553892488053,0.832585510489,1.0,0.0,0.0,0.0,1.0,0.0,0.0,0.0,100000.0,-0.0500414557755,-0.00615632720292,-0.211963266134,1.0,0.0,0.0,0.0,1.0,0.0,0.0,0.0,1.0,-0.671278141439,0.386795980483,8.88897447586,0.1,0.0,0.0,0.0,0.1,0.0,0.0,0.0,0.1
1505419080858696646,16103,1505419080858518456,0.00128347851252,0.00191322106478,-0.553950177518,0.832546631184,1.0,0.0,0.0,0.0,1.0,0.0,0.0,0.0,100000.0,-0.0432815514505,0.0627304464579,-0.0141251087189,1.0,0.0,0.0,0.0,1.0,0.0,0.0,0.0,1.0,-0.695183843374,0.121662000753,8.63769944906,0.1,0.0,0.0,0.0,0.1,0.0,0.0,0.0,0.1
1505419080867260648,16104,1505419080867000206,0.0013542523602,0.0017822318921,-0.55416843541,0.832401546638,1.0,0.0,0.0,0.0,1.0,0.0,0.0,0.0,100000.0,0.0552660003304,-0.0370122678578,-0.0933459401131,1.0,0.0,0.0,0.0,1.0,0.0,0.0,0.0,1.0,-0.550585798174,0.225871152431,8.3840493679,0.1,0.0,0.0,0.0,0.1,0.0,0.0,0.0,0.1
1505419080869995942,16105,1505419080869720139,0.00146638855052,0.00166548708026,-0.554531916192,0.832159497802,1.0,0.0,0.0,0.0,1.0,0.0,0.0,0.0,100000.0,0.071743696928,-0.00789587479085,-0.160072863102,1.0,0.0,0.0,0.0,1.0,0.0,0.0,0.0,1.0,-0.351070644706,0.134894369543,8.53769073486,0.1,0.0,0.0,0.0,0.1,0.0,0.0,0.0,0.1
1505419080877456990,16106,1505419080877309271,0.00164075076414,0.00142343128942,-0.55456146571,0.832139929657,1.0,0.0,0.0,0.0,1.0,0.0,0.0,0.0,100000.0,0.123601965606,-0.0329090692103,-0.000919818878174,1.0,0.0,0.0,0.0,1.0,0.0,0.0,0.0,1.0,-0.292818654329,0.0983247168362,8.60771687031,0.1,0.0,0.0,0.0,0.1,0.0,0.0,0.0,0.1
1505419080878590394,16107,1505419080878391420,0.00181804620043,0.00107399624497,-0.554990343178,0.831854109937,1.0,0.0,0.0,0.0,1.0,0.0,0.0,0.0,100000.0,0.138214334846,-0.061162777245,-0.194425970316,1.0,0.0,0.0,0.0,1.0,0.0,0.0,0.0,1.0,-0.132640621625,0.2519563362,8.9083884716,0.1,0.0,0.0,0.0,0.1,0.0,0.0,0.0,0.1
1505419080883574610,16108,1505419080883389204,0.00197052525781,0.000909239641768,-0.555041410935,0.831819885829,1.0,0.0,0.0,0.0,1.0,0.0,0.0,0.0,100000.0,0.093532666564,-0.00922153610736,-0.0109950900078,1.0,0.0,0.0,0.0,1.0,0.0,0.0,0.0,1.0,-0.223134250566,0.165308945626,9.03280370235,0.1,0.0,0.0,0.0,0.1,0.0,0.0,0.0,0.1
1505419080888826387,16109,1505419080888464361,0.00208430253562,0.000654657331178,-0.555201242443,0.831713176219,1.0,0.0,0.0,0.0,1.0,0.0,0.0,0.0,100000.0,0.09730052948,-0.050135396421,-0.0649641752243,1.0,0.0,0.0,0.0,1.0,0.0,0.0,0.0,1.0,-0.269567081705,0.254690353945,9.22010647058,0.1,0.0,0.0,0.0,0.1,0.0,0.0,0.0,0.1
1505419080895270556,16110,1505419080895077479,0.00209903799995,0.000644252908439,-0.555484297144,0.831524127494,1.0,0.0,0.0,0.0,1.0,0.0,0.0,0.0,100000.0,0.015184674412,0.00465648155659,-0.120871037245,1.0,0.0,0.0,0.0,1.0,0.0,0.0,0.0,1.0,-0.336450202018,0.202828769758,9.32381620407,0.1,0.0,0.0,0.0,0.1,0.0,0.0,0.0,0.1
1505419080898765616,16111,1505419080898620237,0.0020989924291,0.000612843491297,-0.555462544768,0.831538682211,1.0,0.0,0.0,0.0,1.0,0.0,0.0,0.0,100000.0,0.0119334980845,-0.0113284820691,0.020764708519,1.0,0.0,0.0,0.0,1.0,0.0,0.0,0.0,1.0,-0.48175733909,0.217127523571,9.31494333744,0.1,0.0,0.0,0.0,0.1,0.0,0.0,0.0,0.1
1505419080903638378,16112,1505419080903424251,0.00211854825673,0.000546496861157,-0.555847111287,0.831281662235,1.0,0.0,0.0,0.0,1.0,0.0,0.0,0.0,100000.0,0.0261496938765,-0.0260651558638,-0.171781927347,1.0,0.0,0.0,0.0,1.0,0.0,0.0,0.0,1.0,-0.53961847648,0.191848506033,9.26034687757,0.1,0.0,0.0,0.0,0.1,0.0,0.0,0.0,0.1
1505419080911524041,16113,1505419080911336718,0.00213811552414,0.000638181606049,-0.555948669504,0.831213629618,1.0,0.0,0.0,0.0,1.0,0.0,0.0,0.0,100000.0,-0.00622336007655,0.020222235471,-0.0332865417004,1.0,0.0,0.0,0.0,1.0,0.0,0.0,0.0,1.0,-0.659748964012,0.167813365534,9.09344235659,0.1,0.0,0.0,0.0,0.1,0.0,0.0,0.0,0.1
1505419080914101574,16114,1505419080913918408,0.00215022689338,0.000545609040751,-0.556173518721,0.831063232197,1.0,0.0,0.0,0.0,1.0,0.0,0.0,0.0,100000.0,0.0374780297279,-0.0384569130838,-0.0977151691914,1.0,0.0,0.0,0.0,1.0,0.0,0.0,0.0,1.0,-0.624969765544,0.121540183201,8.92937434912,0.1,0.0,0.0,0.0,0.1,0.0,0.0,0.0,0.1
1505419080918698783,16115,1505419080918524017,0.00213598245131,0.000586034961137,-0.556463575506,0.830869053027,1.0,0.0,0.0,0.0,1.0,0.0,0.0,0.0,100000.0,-0.00476632779464,0.00461573153734,-0.124234199524,1.0,0.0,0.0,0.0,1.0,0.0,0.0,0.0,1.0,-0.533220951259,0.155139028281,8.82292097807,0.1,0.0,0.0,0.0,0.1,0.0,0.0,0.0,0.1
1505419080925191391,16116,1505419080925015663,0.00215039542014,0.000513206440131,-0.556536108634,0.830820481335,1.0,0.0,0.0,0.0,1.0,0.0,0.0,0.0,100000.0,0.0277240443975,-0.0285198967904,-0.0220264792442,1.0,0.0,0.0,0.0,1.0,0.0,0.0,0.0,1.0,-0.507021936029,0.144515847787,8.71900621653,0.1,0.0,0.0,0.0,0.1,0.0,0.0,0.0,0.1
1505419080929346435,16117,1505419080928433635,0.00218887589601,0.000350251933565,-0.556804307862,0.830640745986,1.0,0.0,0.0,0.0,1.0,0.0,0.0,0.0,100000.0,0.0528278574347,-0.0420314073563,-0.114738017321,1.0,0.0,0.0,0.0,1.0,0.0,0.0,0.0,1.0,-0.373429728299,0.23174312897,8.78302053213,0.1,0.0,0.0,0.0,0.1,0.0,0.0,0.0,0.1
1505419080933825885,16118,1505419080933615688,0.0022127969799,0.000228942519257,-0.556891272616,0.830582423122,1.0,0.0,0.0,0.0,1.0,0.0,0.0,0.0,100000.0,0.0330911800265,-0.0258516240865,-0.0294814109802,1.0,0.0,0.0,0.0,1.0,0.0,0.0,0.0,1.0,-0.294209165126,0.354339958727,8.86328288317,0.1,0.0,0.0,0.0,0.1,0.0,0.0,0.0,0.1
1505419080938878598,16119,1505419080938696330,0.00218800151375,3.59102790105e-06,-0.55701433974,0.830499992752,1.0,0.0,0.0,0.0,1.0,0.0,0.0,0.0,100000.0,0.0423330962658,-0.0726449415088,-0.0465608872473,1.0,0.0,0.0,0.0,1.0,0.0,0.0,0.0,1.0,-0.279898254201,0.296091144532,9.05034557581,0.1,0.0,0.0,0.0,0.1,0.0,0.0,0.0,0.1
1505419080944345752,16120,1505419080944163914,0.00208369547305,-7.40424760941e-05,-0.557202665775,0.83037391697,1.0,0.0,0.0,0.0,1.0,0.0,0.0,0.0,100000.0,-0.0174718946218,-0.0402019098401,-0.0759369432926,1.0,0.0,0.0,0.0,1.0,0.0,0.0,0.0,1.0,-0.225911475345,0.347857114673,9.20655709505,0.1,0.0,0.0,0.0,0.1,0.0,0.0,0.0,0.1
1505419080948830094,16121,1505419080948653112,0.00194047235478,-0.000209303309596,-0.557267735631,0.830330573677,1.0,0.0,0.0,0.0,1.0,0.0,0.0,0.0,100000.0,-0.0139387659729,-0.0696065723896,-0.0184715688229,1.0,0.0,0.0,0.0,1.0,0.0,0.0,0.0,1.0,-0.318951371312,0.264880861714,9.24790850878,0.1,0.0,0.0,0.0,0.1,0.0,0.0,0.0,0.1
1505419080954320376,16122,1505419080954101553,0.00185276552145,-0.000371567959016,-0.557434215688,0.830218961707,1.0,0.0,0.0,0.0,1.0,0.0,0.0,0.0,100000.0,0.0142571199685,-0.0766868144274,-0.0685418248177,1.0,0.0,0.0,0.0,1.0,0.0,0.0,0.0,1.0,-0.482411669195,0.167157191783,9.25412477255,0.1,0.0,0.0,0.0,0.1,0.0,0.0,0.0,0.1
1505419080960595256,16123,1505419080960435585,0.00177268401682,-0.000412775433066,-0.557586258512,0.830117010744,1.0,0.0,0.0,0.0,1.0,0.0,0.0,0.0,100000.0,-0.0084096621722,-0.0424218587577,-0.0589030385017,1.0,0.0,0.0,0.0,1.0,0.0,0.0,0.0,1.0,-0.557150492817,0.179646288231,9.10230762959,0.1,0.0,0.0,0.0,0.1,0.0,0.0,0.0,0.1
1505419080963965458,16124,1505419080963782492,0.0017141197051,-0.000531378938396,-0.557687520221,0.83004904025,1.0,0.0,0.0,0.0,1.0,0.0,0.0,0.0,100000.0,0.0190613307059,-0.0657473951578,-0.0355017483234,1.0,0.0,0.0,0.0,1.0,0.0,0.0,0.0,1.0,-0.66647670269,0.0796041510999,9.04093823433,0.1,0.0,0.0,0.0,0.1,0.0,0.0,0.0,0.1
1505419080968926554,16125,1505419080968731024,0.00168749784407,-0.000493029325808,-0.557919317188,0.829893333375,1.0,0.0,0.0,0.0,1.0,0.0,0.0,0.0,100000.0,-0.0113507062197,-0.00633705500513,-0.096467204392,1.0,0.0,0.0,0.0,1.0,0.0,0.0,0.0,1.0,-0.583353560418,0.19469887428,8.86763637066,0.1,0.0,0.0,0.0,0.1,0.0,0.0,0.0,0.1
1505419080977355278,16126,1505419080977158332,0.0016511038194,-0.000500351333854,-0.558020687764,0.829825243972,1.0,0.0,0.0,0.0,1.0,0.0,0.0,0.0,100000.0,-0.0013941694051,-0.01471543964,-0.0366192162037,1.0,0.0,0.0,0.0,1.0,0.0,0.0,0.0,1.0,-0.495118334144,0.186389268935,8.86844363213,0.1,0.0,0.0,0.0,0.1,0.0,0.0,0.0,0.1
1505419080978951034,16127,1505419080978764355,0.00169655784289,-0.00060493457694,-0.558179892762,0.829718002132,1.0,0.0,0.0,0.0,1.0,0.0,0.0,0.0,100000.0,0.0409640967846,-0.0269915834069,-0.0643852651119,1.0,0.0,0.0,0.0,1.0,0.0,0.0,0.0,1.0,-0.465207164735,0.258124117553,8.77418096066,0.1,0.0,0.0,0.0,0.1,0.0,0.0,0.0,0.1
1505419080985179868,16128,1505419080985004156,0.00173959825624,-0.000697438177014,-0.558346313467,0.829605859198,1.0,0.0,0.0,0.0,1.0,0.0,0.0,0.0,100000.0,0.0346051007509,-0.0162497200072,-0.0657819211483,1.0,0.0,0.0,0.0,1.0,0.0,0.0,0.0,1.0,-0.309894833714,0.287925252318,8.94128992558,0.1,0.0,0.0,0.0,0.1,0.0,0.0,0.0,0.1
1505419080989679034,16129,1505419080989437341,0.00178228424091,-0.000884117838816,-0.558403904684,0.829566827346,1.0,0.0,0.0,0.0,1.0,0.0,0.0,0.0,100000.0,0.065563313663,-0.04927393049,-0.0152181982994,1.0,0.0,0.0,0.0,1.0,0.0,0.0,0.0,1.0,-0.361162216216,0.163524095342,9.02627609968,0.1,0.0,0.0,0.0,0.1,0.0,0.0,0.0,0.1
1505419080994006365,16130,1505419080993862568,0.00180586706799,-0.000974187040005,-0.558591961633,0.829440058233,1.0,0.0,0.0,0.0,1.0,0.0,0.0,0.0,100000.0,0.0323950983584,-0.0204275362194,-0.0774458050728,1.0,0.0,0.0,0.0,1.0,0.0,0.0,0.0,1.0,-0.317897170782,0.232706078142,9.16843881607,0.1,0.0,0.0,0.0,0.1,0.0,0.0,0.0,0.1
1505419080999100815,16131,1505419080998914501,0.00181977892572,-0.0010785347838,-0.558685858795,0.829376655296,1.0,0.0,0.0,0.0,1.0,0.0,0.0,0.0,100000.0,0.0374053567648,-0.0315882563591,-0.0287538170815,1.0,0.0,0.0,0.0,1.0,0.0,0.0,0.0,1.0,-0.38736608699,0.193492107466,9.2319133997,0.1,0.0,0.0,0.0,0.1,0.0,0.0,0.0,0.1
1505419081004056092,16132,1505419081003859943,0.00187213926534,-0.00121949482994,-0.558830285859,0.829279035991,1.0,0.0,0.0,0.0,1.0,0.0,0.0,0.0,100000.0,0.0507204309106,-0.0409219861031,-0.0567997395992,1.0,0.0,0.0,0.0,1.0,0.0,0.0,0.0,1.0,-0.496474856138,0.257111846283,9.18667755127,0.1,0.0,0.0,0.0,0.1,0.0,0.0,0.0,0.1
1505419081011719605,16133,1505419081011483561,0.00183988473109,-0.00131417970958,-0.559032686875,0.829142534647,1.0,0.0,0.0,0.0,1.0,0.0,0.0,0.0,100000.0,0.0136681124568,-0.0489900782704,-0.0829893350601,1.0,0.0,0.0,0.0,1.0,0.0,0.0,0.0,1.0,-0.496442145109,0.270984334499,9.19802068472,0.1,0.0,0.0,0.0,0.1,0.0,0.0,0.0,0.1
1505419081015360983,16134,1505419081015177778,0.00187513784499,-0.00146477143638,-0.559184287448,0.829039969467,1.0,0.0,0.0,0.0,1.0,0.0,0.0,0.0,100000.0,0.0517124645412,-0.052360534668,-0.0600635707378,1.0,0.0,0.0,0.0,1.0,0.0,0.0,0.0,1.0,-0.541226281971,0.201909611747,9.13144556284,0.1,0.0,0.0,0.0,0.1,0.0,0.0,0.0,0.1
1505419081019549935,16135,1505419081019332544,0.00185003358935,-0.00153305476288,-0.559473477986,0.828844771082,1.0,0.0,0.0,0.0,1.0,0.0,0.0,0.0,100000.0,0.0126248113811,-0.0351196303964,-0.127379029989,1.0,0.0,0.0,0.0,1.0,0.0,0.0,0.0,1.0,-0.521177049726,0.224483470991,9.07510490417,0.1,0.0,0.0,0.0,0.1,0.0,0.0,0.0,0.1
1505419081024155743,16136,1505419081023955104,0.00190957423307,-0.00161627583602,-0.559726353012,0.828673730079,1.0,0.0,0.0,0.0,1.0,0.0,0.0,0.0,100000.0,0.0526436492801,-0.0197039581835,-0.105879724026,1.0,0.0,0.0,0.0,1.0,0.0,0.0,0.0,1.0,-0.461005294323,0.124026613869,9.03804506063,0.1,0.0,0.0,0.0,0.1,0.0,0.0,0.0,0.1
1505419081031838444,16137,1505419081031628106,0.00196870992864,-0.00176240932785,-0.559957358108,0.828517214785,1.0,0.0,0.0,0.0,1.0,0.0,0.0,0.0,100000.0,0.0583572424948,-0.0403911471367,-0.100625932217,1.0,0.0,0.0,0.0,1.0,0.0,0.0,0.0,1.0,-0.514630901068,0.186762068793,8.96163151264,0.1,0.0,0.0,0.0,0.1,0.0,0.0,0.0,0.1
1505419081034963936,16138,1505419081034787027,0.00192870905511,-0.00188369966515,-0.560181101503,0.82836577988,1.0,0.0,0.0,0.0,1.0,0.0,0.0,0.0,100000.0,0.0214369501919,-0.0574426800013,-0.0939475372434,1.0,0.0,0.0,0.0,1.0,0.0,0.0,0.0,1.0,-0.490008477122,0.174845269322,9.06573845148,0.1,0.0,0.0,0.0,0.1,0.0,0.0,0.0,0.1
1505419081045637335,16139,1505419081045440502,0.00198284280028,-0.00209957551622,-0.560223737603,0.82833629882,1.0,0.0,0.0,0.0,1.0,0.0,0.0,0.0,100000.0,0.0742324590683,-0.0605220533907,-0.00659376382828,1.0,0.0,0.0,0.0,1.0,0.0,0.0,0.0,1.0,-0.45061917752,0.19625832513,9.07022161484,0.1,0.0,0.0,0.0,0.1,0.0,0.0,0.0,0.1
1505419081045645511,16140,1505419081045478451,0.00183425222598,-0.00221010125484,-0.560302919747,0.828282795363,1.0,0.0,0.0,0.0,1.0,0.0,0.0,0.0,100000.0,-0.0152791347355,-0.0766815021634,-0.0224902927876,1.0,0.0,0.0,0.0,1.0,0.0,0.0,0.0,1.0,-0.481644529849,0.228778454661,9.13101798296,0.1,0.0,0.0,0.0,0.1,0.0,0.0,0.0,0.1
1505419081049599966,16141,1505419081049404028,0.00188191359916,-0.00232656815527,-0.560288038528,0.828292435897,1.0,0.0,0.0,0.0,1.0,0.0,0.0,0.0,100000.0,0.044853053987,-0.027291001752,0.0190789997578,1.0,0.0,0.0,0.0,1.0,0.0,0.0,0.0,1.0,-0.36250417158,0.238110425696,9.12871302366,0.1,0.0,0.0,0.0,0.1,0.0,0.0,0.0,0.1
1505419081056541889,16142,1505419081056362642,0.00177234596377,-0.00244191453166,-0.560244300233,0.828321930109,1.0,0.0,0.0,0.0,1.0,0.0,0.0,0.0,100000.0,-0.00432315096259,-0.0627002492547,0.0363534465432,1.0,0.0,0.0,0.0,1.0,0.0,0.0,0.0,1.0,-0.382463485003,0.271220941842,9.19344873428,0.1,0.0,0.0,0.0,0.1,0.0,0.0,0.0,0.1
1505419081059097567,16143,1505419081058916680,0.00161880756123,-0.0025596580192,-0.56033060304,0.828263510551,1.0,0.0,0.0,0.0,1.0,0.0,0.0,0.0,100000.0,-0.0244168490171,-0.0720631927252,-0.0282850600779,1.0,0.0,0.0,0.0,1.0,0.0,0.0,0.0,1.0,-0.345366659015,0.287283079326,9.29195741415,0.1,0.0,0.0,0.0,0.1,0.0,0.0,0.0,0.1
1505419081064366374,16144,1505419081064185972,0.00156421283587,-0.00276499178371,-0.560315354238,0.828273271248,1.0,0.0,0.0,0.0,1.0,0.0,0.0,0.0,100000.0,0.0296694263816,-0.079694122076,0.0213109515607,1.0,0.0,0.0,0.0,1.0,0.0,0.0,0.0,1.0,-0.400547719002,0.315252579004,9.37486351728,0.1,0.0,0.0,0.0,0.1,0.0,0.0,0.0,0.1
1505419081069342011,16145,1505419081069160713,0.00133479185821,-0.00294769449476,-0.560502634635,0.828146319195,1.0,0.0,0.0,0.0,1.0,0.0,0.0,0.0,100000.0,-0.0313112474978,-0.120195515454,-0.075530141592,1.0,0.0,0.0,0.0,1.0,0.0,0.0,0.0,1.0,-0.506250014156,0.273525152728,9.32896819115,0.1,0.0,0.0,0.0,0.1,0.0,0.0,0.0,0.1
1505419081077669278,16146,1505419081077429046,0.00136641069447,-0.0031805502111,-0.560667796685,0.828033597617,1.0,0.0,0.0,0.0,1.0,0.0,0.0,0.0,100000.0,0.0654499456286,-0.0820441842079,-0.0643923953176,1.0,0.0,0.0,0.0,1.0,0.0,0.0,0.0,1.0,-0.531503476202,0.289944647253,9.20158326626,0.1,0.0,0.0,0.0,0.1,0.0,0.0,0.0,0.1
1505419081079490765,16147,1505419081079305252,0.00125527229018,-0.00339059093672,-0.560840247888,0.827916145834,1.0,0.0,0.0,0.0,1.0,0.0,0.0,0.0,100000.0,0.0218822769821,-0.105512060225,-0.0712287575006,1.0,0.0,0.0,0.0,1.0,0.0,0.0,0.0,1.0,-0.578075073659,0.141133532859,9.04982103109,0.1,0.0,0.0,0.0,0.1,0.0,0.0,0.0,0.1
1505419081084613783,16148,1505419081084459954,0.00115354952633,-0.00355484546023,-0.561135701879,0.827715383737,1.0,0.0,0.0,0.0,1.0,0.0,0.0,0.0,100000.0,0.00246688816696,-0.0901857167482,-0.126444369555,1.0,0.0,0.0,0.0,1.0,0.0,0.0,0.0,1.0,-0.55881415531,0.310099715739,8.96702182293,0.1,0.0,0.0,0.0,0.1,0.0,0.0,0.0,0.1
1505419081093029049,16149,1505419081092839281,0.00113957054672,-0.00374606920365,-0.561221401466,0.827656454624,1.0,0.0,0.0,0.0,1.0,0.0,0.0,0.0,100000.0,0.045884359628,-0.0758683979511,-0.028432071209,1.0,0.0,0.0,0.0,1.0,0.0,0.0,0.0,1.0,-0.497562132776,0.213819529489,8.91227582693,0.1,0.0,0.0,0.0,0.1,0.0,0.0,0.0,0.1
1505419081097519601,16150,1505419081097320993,0.000902901531224,-0.00382922170069,-0.561488409384,0.827475249151,1.0,0.0,0.0,0.0,1.0,0.0,0.0,0.0,100000.0,-0.0613805018365,-0.0898826271296,-0.113939523697,1.0,0.0,0.0,0.0,1.0,0.0,0.0,0.0,1.0,-0.528685545176,0.361600018293,8.90051854849,0.1,0.0,0.0,0.0,0.1,0.0,0.0,0.0,0.1
1505419081100880663,16151,1505419081100584275,0.000894257237752,-0.00391885884692,-0.561625104264,0.827382067191,1.0,0.0,0.0,0.0,1.0,0.0,0.0,0.0,100000.0,0.0183330476284,-0.0391186997294,-0.0534567832947,1.0,0.0,0.0,0.0,1.0,0.0,0.0,0.0,1.0,-0.454869749397,0.326721701026,8.92357515097,0.1,0.0,0.0,0.0,0.1,0.0,0.0,0.0,0.1
1505419081104501988,16152,1505419081104296879,0.000745732428838,-0.0039661205304,-0.56172607734,0.827313439881,1.0,0.0,0.0,0.0,1.0,0.0,0.0,0.0,100000.0,-0.0363848097622,-0.0482075400651,-0.0352308452129,1.0,0.0,0.0,0.0,1.0,0.0,0.0,0.0,1.0,-0.385861963779,0.272175348178,9.10185493231,0.1,0.0,0.0,0.0,0.1,0.0,0.0,0.0,0.1
1505419081111690009,16153,1505419081111479107,0.00067682877346,-0.00397298977422,-0.561949944539,0.827161421421,1.0,0.0,0.0,0.0,1.0,0.0,0.0,0.0,100000.0,-0.0242233071476,-0.0222598984838,-0.094395428896,1.0,0.0,0.0,0.0,1.0,0.0,0.0,0.0,1.0,-0.402529802918,0.375892803073,9.22075718641,0.1,0.0,0.0,0.0,0.1,0.0,0.0,0.0,0.1
1505419081114360598,16154,1505419081114178749,0.000729742094643,-0.00401942679318,-0.561935146937,0.827171204964,1.0,0.0,0.0,0.0,1.0,0.0,0.0,0.0,100000.0,0.0383942686021,-0.00548981782049,0.0217044949532,1.0,0.0,0.0,0.0,1.0,0.0,0.0,0.0,1.0,-0.37131081298,0.204023069143,9.40590453148,0.1,0.0,0.0,0.0,0.1,0.0,0.0,0.0,0.1
1505419081121538122,16155,1505419081121374338,0.000638852284804,-0.00404302565178,-0.562166120366,0.827014207208,1.0,0.0,0.0,0.0,1.0,0.0,0.0,0.0,100000.0,-0.0257400628179,-0.0404323376715,-0.0952740907669,1.0,0.0,0.0,0.0,1.0,0.0,0.0,0.0,1.0,-0.54087748602,0.328045767546,9.29343466759,0.1,0.0,0.0,0.0,0.1,0.0,0.0,0.0,0.1
1505419081124712109,16156,1505419081124576918,0.000712148384737,-0.0041672375403,-0.562288006265,0.826930665163,1.0,0.0,0.0,0.0,1.0,0.0,0.0,0.0,100000.0,0.0613303855062,-0.0376154594123,-0.0470249652863,1.0,0.0,0.0,0.0,1.0,0.0,0.0,0.0,1.0,-0.588816886395,0.150782501511,9.23000506163,0.1,0.0,0.0,0.0,0.1,0.0,0.0,0.0,0.1
1505419081129539323,16157,1505419081129313710,0.000641023648745,-0.00422474090229,-0.562367142462,0.826876615785,1.0,0.0,0.0,0.0,1.0,0.0,0.0,0.0,100000.0,0.00404415652156,-0.0540649294853,-0.0227704960853,1.0,0.0,0.0,0.0,1.0,0.0,0.0,0.0,1.0,-0.66683499068,0.118865947053,9.076597929,0.1,0.0,0.0,0.0,0.1,0.0,0.0,0.0,0.1
1505419081134381534,16158,1505419081134231588,0.000568765139814,-0.00431380236612,-0.56260478361,0.82671453663,1.0,0.0,0.0,0.0,1.0,0.0,0.0,0.0,100000.0,0.00171686522663,-0.0616568401456,-0.098779052496,1.0,0.0,0.0,0.0,1.0,0.0,0.0,0.0,1.0,-0.59718028605,0.195016784593,8.98587914705,0.1,0.0,0.0,0.0,0.1,0.0,0.0,0.0,0.1
1505419081144754852,16159,1505419081144564316,0.00061712849114,-0.00439886315489,-0.56245994374,0.82681260322,1.0,0.0,0.0,0.0,1.0,0.0,0.0,0.0,100000.0,0.0479754321277,-0.0264036208391,0.0837066322565,1.0,0.0,0.0,0.0,1.0,0.0,0.0,0.0,1.0,-0.516788113117,0.135667432286,9.01241304874,0.1,0.0,0.0,0.0,0.1,0.0,0.0,0.0,0.1
1505419081146855805,16160,1505419081146674742,0.000582369777041,-0.00441799877554,-0.562589722181,0.826724226468,1.0,0.0,0.0,0.0,1.0,0.0,0.0,0.0,100000.0,-0.00390406139195,-0.0212221425027,-0.048146545887,1.0,0.0,0.0,0.0,1.0,0.0,0.0,0.0,1.0,-0.443331846595,0.260522518679,8.96872571707,0.1,0.0,0.0,0.0,0.1,0.0,0.0,0.0,0.1
1505419081150021185,16161,1505419081149845244,0.000661822745113,-0.00450340799801,-0.562516938596,0.826773230759,1.0,0.0,0.0,0.0,1.0,0.0,0.0,0.0,100000.0,0.0548207834363,-0.0083349654451,0.0474476963282,1.0,0.0,0.0,0.0,1.0,0.0,0.0,0.0,1.0,-0.349377520382,0.229275016114,9.19030964375,0.1,0.0,0.0,0.0,0.1,0.0,0.0,0.0,0.1
1505419081158377862,16162,1505419081158158480,0.000695906877703,-0.00451578007068,-0.562459130577,0.826812463546,1.0,0.0,0.0,0.0,1.0,0.0,0.0,0.0,100000.0,0.0186779778451,0.00622491538525,0.041864939034,1.0,0.0,0.0,0.0,1.0,0.0,0.0,0.0,1.0,-0.27840497382,0.256593799964,9.32988001108,0.1,0.0,0.0,0.0,0.1,0.0,0.0,0.0,0.1
1505419081159639553,16163,1505419081159482781,0.000655520964377,-0.00457366212945,-0.562660829053,0.826674932096,1.0,0.0,0.0,0.0,1.0,0.0,0.0,0.0,100000.0,-0.00239449553192,-0.0244528464973,-0.0808129757643,1.0,0.0,0.0,0.0,1.0,0.0,0.0,0.0,1.0,-0.29230787307,0.328498793393,9.61023105383,0.1,0.0,0.0,0.0,0.1,0.0,0.0,0.0,0.1
1505419081165807641,16164,1505419081165643066,0.000702032857152,-0.00455227367296,-0.562603168105,0.826714254862,1.0,0.0,0.0,0.0,1.0,0.0,0.0,0.0,100000.0,0.0194669868797,0.0157799888402,0.0423891916871,1.0,0.0,0.0,0.0,1.0,0.0,0.0,0.0,1.0,-0.326305511594,0.224436302856,9.72116116285,0.1,0.0,0.0,0.0,0.1,0.0,0.0,0.0,0.1
1505419081169789808,16165,1505419081169544801,0.000511666687634,-0.00455065104636,-0.562891966647,0.826517793914,1.0,0.0,0.0,0.0,1.0,0.0,0.0,0.0,100000.0,-0.0587964951992,-0.0475817210972,-0.125137656927,1.0,0.0,0.0,0.0,1.0,0.0,0.0,0.0,1.0,-0.454816959053,0.260059033334,9.67540719509,0.1,0.0,0.0,0.0,0.1,0.0,0.0,0.0,0.1
1505419081177231293,16166,1505419081177089050,0.000465302935012,-0.00450913461313,-0.563036503651,0.826419594852,1.0,0.0,0.0,0.0,1.0,0.0,0.0,0.0,100000.0,-0.0127367861569,-0.013783368282,-0.0549159944057,1.0,0.0,0.0,0.0,1.0,0.0,0.0,0.0,1.0,-0.585407929868,0.147772110254,9.56868337393,0.1,0.0,0.0,0.0,0.1,0.0,0.0,0.0,0.1
1505419081180800949,16167,1505419081180634192,0.000295954147715,-0.00444696106247,-0.563138058963,0.826350811396,1.0,0.0,0.0,0.0,1.0,0.0,0.0,0.0,100000.0,-0.0548476427794,-0.0323485098779,-0.0361501909792,1.0,0.0,0.0,0.0,1.0,0.0,0.0,0.0,1.0,-0.639716890454,0.0562050137669,9.19688923359,0.1,0.0,0.0,0.0,0.1,0.0,0.0,0.0,0.1
1505419081185175844,16168,1505419081185047894,0.000242164686486,-0.00436904734,-0.563390985197,0.826178824819,1.0,0.0,0.0,0.0,1.0,0.0,0.0,0.0,100000.0,-0.0197077002376,-0.00286714173853,-0.108048945665,1.0,0.0,0.0,0.0,1.0,0.0,0.0,0.0,1.0,-0.601857817173,0.0731889788993,8.94320994616,0.1,0.0,0.0,0.0,0.1,0.0,0.0,0.0,0.1
1505419081189843405,16169,1505419081189665856,0.000337213348078,-0.00430711369687,-0.563391229904,0.82617894982,1.0,0.0,0.0,0.0,1.0,0.0,0.0,0.0,100000.0,0.0312685519457,0.0331125035882,0.0141194164753,1.0,0.0,0.0,0.0,1.0,0.0,0.0,0.0,1.0,-0.474673283845,0.0616344467737,8.59235028028,0.1,0.0,0.0,0.0,0.1,0.0,0.0,0.0,0.1
1505419081194839741,16170,1505419081194638578,0.000357673497606,-0.00432196012834,-0.563614586724,0.826026507058,1.0,0.0,0.0,0.0,1.0,0.0,0.0,0.0,100000.0,0.0260882433504,-0.00015230383724,-0.0916903018951,1.0,0.0,0.0,0.0,1.0,0.0,0.0,0.0,1.0,-0.352781584859,0.0972490953282,8.67434456348,0.1,0.0,0.0,0.0,0.1,0.0,0.0,0.0,0.1
1505419081199820896,16171,1505419081199655595,0.000482467357204,-0.00432343277645,-0.563816244634,0.825888804526,1.0,0.0,0.0,0.0,1.0,0.0,0.0,0.0,100000.0,0.0436853915453,0.0340083092451,-0.0827017724514,1.0,0.0,0.0,0.0,1.0,0.0,0.0,0.0,1.0,-0.220181879401,0.288231626153,8.9176223278,0.1,0.0,0.0,0.0,0.1,0.0,0.0,0.0,0.1
1505419081204705764,16172,1505419081204543897,0.000401500549099,-0.00436375567147,-0.563938608461,0.825805087367,1.0,0.0,0.0,0.0,1.0,0.0,0.0,0.0,100000.0,-0.0178824048489,-0.0227115098387,-0.0463315248489,1.0,0.0,0.0,0.0,1.0,0.0,0.0,0.0,1.0,-0.198180043325,0.308661233634,9.30852963924,0.1,0.0,0.0,0.0,0.1,0.0,0.0,0.0,0.1
1505419081212328136,16173,1505419081212119847,0.00041057776085,-0.00425513317678,-0.564292327363,0.825563985738,1.0,0.0,0.0,0.0,1.0,0.0,0.0,0.0,100000.0,-0.0291353650391,0.0408564098179,-0.155262887478,1.0,0.0,0.0,0.0,1.0,0.0,0.0,0.0,1.0,-0.267419781536,0.439552810043,9.63334431648,0.1,0.0,0.0,0.0,0.1,0.0,0.0,0.0,0.1
1505419081215354860,16174,1505419081215149395,0.000276569363051,-0.00407934701374,-0.564394337074,0.825495193636,1.0,0.0,0.0,0.0,1.0,0.0,0.0,0.0,100000.0,-0.0806917995214,0.0253832116723,-0.0357216633856,1.0,0.0,0.0,0.0,1.0,0.0,0.0,0.0,1.0,-0.38858409822,0.32347991392,9.56842519045,0.1,0.0,0.0,0.0,0.1,0.0,0.0,0.0,0.1
1505419081220082700,16175,1505419081219877016,7.23091445615e-05,-0.00386640567862,-0.564611797466,0.825347541246,1.0,0.0,0.0,0.0,1.0,0.0,0.0,0.0,100000.0,-0.109634689987,0.0152540588751,-0.0897017717361,1.0,0.0,0.0,0.0,1.0,0.0,0.0,0.0,1.0,-0.486561661959,0.234072439,9.52165834904,0.1,0.0,0.0,0.0,0.1,0.0,0.0,0.0,0.1
1505419081226032001,16176,1505419081225899430,-0.000143810524708,-0.00365563550629,-0.564793156915,0.825224397088,1.0,0.0,0.0,0.0,1.0,0.0,0.0,0.0,100000.0,-0.114434838295,0.00904954411089,-0.0729793608189,1.0,0.0,0.0,0.0,1.0,0.0,0.0,0.0,1.0,-0.55523313731,0.213946960121,9.24299192429,0.1,0.0,0.0,0.0,0.1,0.0,0.0,0.0,0.1
1505419081229937351,16177,1505419081229745929,-0.000408789736823,-0.00354832137484,-0.564801161249,0.825219298464,1.0,0.0,0.0,0.0,1.0,0.0,0.0,0.0,100000.0,-0.0959726274014,-0.0355055555701,0.0129093229771,1.0,0.0,0.0,0.0,1.0,0.0,0.0,0.0,1.0,-0.510920061171,0.0226569009013,9.07130458355,0.1,0.0,0.0,0.0,0.1,0.0,0.0,0.0,0.1
1505419081234922048,16178,1505419081234750125,-0.000369876396385,-0.00349065581435,-0.564923785836,0.82513562201,1.0,0.0,0.0,0.0,1.0,0.0,0.0,0.0,100000.0,0.00789500400424,0.020096141845,-0.0465391278267,1.0,0.0,0.0,0.0,1.0,0.0,0.0,0.0,1.0,-0.501973193139,0.164277599007,8.83382835388,0.1,0.0,0.0,0.0,0.1,0.0,0.0,0.0,0.1
1505419081243807128,16179,1505419081243612645,-0.000300125079397,-0.00355932002571,-0.564829776303,0.825199712171,1.0,0.0,0.0,0.0,1.0,0.0,0.0,0.0,100000.0,0.0478320457041,-0.0144701246172,0.060977563262,1.0,0.0,0.0,0.0,1.0,0.0,0.0,0.0,1.0,-0.451729308069,0.152446857654,8.74219892025,0.1,0.0,0.0,0.0,0.1,0.0,0.0,0.0,0.1
1505419081244693105,16180,1505419081244565163,4.47883975308e-07,-0.00375421051599,-0.564742071833,0.825258927977,1.0,0.0,0.0,0.0,1.0,0.0,0.0,0.0,100000.0,0.144022583961,-0.000581876374781,0.0559307262301,1.0,0.0,0.0,0.0,1.0,0.0,0.0,0.0,1.0,-0.440303812921,0.344385182112,8.87962613106,0.1,0.0,0.0,0.0,0.1,0.0,0.0,0.0,0.1
1505419081250274270,16181,1505419081250029186,0.000205775733036,-0.00397939183509,-0.564762318418,0.825243991673,1.0,0.0,0.0,0.0,1.0,0.0,0.0,0.0,100000.0,0.112893313169,-0.0351546481252,0.00649972306564,1.0,0.0,0.0,0.0,1.0,0.0,0.0,0.0,1.0,-0.451543921232,0.374249000847,9.21155837774,0.1,0.0,0.0,0.0,0.1,0.0,0.0,0.0,0.1
1505419081254938168,16182,1505419081254679633,0.000329910742403,-0.00416964463268,-0.564645902097,0.825322670516,1.0,0.0,0.0,0.0,1.0,0.0,0.0,0.0,100000.0,0.0849510729313,-0.0346628651023,0.0714989900589,1.0,0.0,0.0,0.0,1.0,0.0,0.0,0.0,1.0,-0.376530777663,0.343514360487,9.45460073948,0.1,0.0,0.0,0.0,0.1,0.0,0.0,0.0,0.1
1505419081260652231,16183,1505419081260301600,0.00048129082136,-0.00421026978961,-0.564767913378,0.825238902383,1.0,0.0,0.0,0.0,1.0,0.0,0.0,0.0,100000.0,0.0639678612351,0.0116117382422,-0.0436133444309,1.0,0.0,0.0,0.0,1.0,0.0,0.0,0.0,1.0,-0.477599971741,0.246414773911,9.64618456364,0.1,0.0,0.0,0.0,0.1,0.0,0.0,0.0,0.1
1505419081267137998,16184,1505419081266906503,0.000388710613922,-0.00402039988263,-0.564869903199,0.825170090193,1.0,0.0,0.0,0.0,1.0,0.0,0.0,0.0,100000.0,-0.0604964010417,0.035602889955,-0.0352107211947,1.0,0.0,0.0,0.0,1.0,0.0,0.0,0.0,1.0,-0.451559254527,0.116299016587,9.53717155457,0.1,0.0,0.0,0.0,0.1,0.0,0.0,0.0,0.1
1505419081271850655,16185,1505419081271580410,0.000343374582928,-0.00374635865087,-0.564936173437,0.825126030879,1.0,0.0,0.0,0.0,1.0,0.0,0.0,0.0,100000.0,-0.0720283985138,0.0700191929936,-0.0154688712209,1.0,0.0,0.0,0.0,1.0,0.0,0.0,0.0,1.0,-0.492330449075,0.223046668246,9.57256839275,0.1,0.0,0.0,0.0,0.1,0.0,0.0,0.0,0.1
1505419081278637248,16186,1505419081278384509,5.82896173461e-05,-0.00340400270796,-0.565247698752,0.824914206704,1.0,0.0,0.0,0.0,1.0,0.0,0.0,0.0,100000.0,-0.162774175406,0.0404051356018,-0.136750653386,1.0,0.0,0.0,0.0,1.0,0.0,0.0,0.0,1.0,-0.504021903872,0.172017079592,9.43569201231,0.1,0.0,0.0,0.0,0.1,0.0,0.0,0.0,0.1
1505419081280785168,16187,1505419081280656804,-0.000191688927328,-0.00307404786703,-0.565256612656,0.824909374013,1.0,0.0,0.0,0.0,1.0,0.0,0.0,0.0,100000.0,-0.152029380202,0.0479476004839,0.0129255652428,1.0,0.0,0.0,0.0,1.0,0.0,0.0,0.0,1.0,-0.447429085523,0.219178643823,9.27705578804,0.1,0.0,0.0,0.0,0.1,0.0,0.0,0.0,0.1
1505419081285409869,16188,1505419081285231389,-0.000228821807771,-0.00287987471287,-0.565509305013,0.824736854946,1.0,0.0,0.0,0.0,1.0,0.0,0.0,0.0,100000.0,-0.0407017990947,0.0417422130704,-0.10789065063,1.0,0.0,0.0,0.0,1.0,0.0,0.0,0.0,1.0,-0.547663345188,0.0851632097736,9.02659561634,0.1,0.0,0.0,0.0,0.1,0.0,0.0,0.0,0.1
1505419081290186311,16189,1505419081289898546,-0.000203154269652,-0.00274948664622,-0.565581748835,0.8246876284,1.0,0.0,0.0,0.0,1.0,0.0,0.0,0.0,100000.0,-0.0114863049239,0.0397042036057,-0.022528886795,1.0,0.0,0.0,0.0,1.0,0.0,0.0,0.0,1.0,-0.553818458319,0.136011920311,8.80811164379,0.1,0.0,0.0,0.0,0.1,0.0,0.0,0.0,0.1
1505419081295157874,16190,1505419081294957655,0.000125078183484,-0.00282641309245,-0.565566803289,0.824697633537,1.0,0.0,0.0,0.0,1.0,0.0,0.0,0.0,100000.0,0.128795340657,0.0345975607634,0.0246309638023,1.0,0.0,0.0,0.0,1.0,0.0,0.0,0.0,1.0,-0.595279286057,0.235873097181,8.90574296713,0.1,0.0,0.0,0.0,0.1,0.0,0.0,0.0,0.1
1505419081303834073,16191,1505419081303630323,0.000369356818082,-0.0029628621123,-0.565796328507,0.824539628927,1.0,0.0,0.0,0.0,1.0,0.0,0.0,0.0,100000.0,0.108447156847,-0.00244429521263,-0.0985090881586,1.0,0.0,0.0,0.0,1.0,0.0,0.0,0.0,1.0,-0.579576604813,0.344733832031,9.09682736397,0.1,0.0,0.0,0.0,0.1,0.0,0.0,0.0,0.1
1505419081305121364,16192,1505419081304925331,0.000508177637312,-0.00310022446526,-0.565723669992,0.824588903378,1.0,0.0,0.0,0.0,1.0,0.0,0.0,0.0,100000.0,0.0688647329807,-0.0185701102018,0.0503259003162,1.0,0.0,0.0,0.0,1.0,0.0,0.0,0.0,1.0,-0.448932150006,0.491501100361,9.37690094709,0.1,0.0,0.0,0.0,0.1,0.0,0.0,0.0,0.1
1505419081311691241,16193,1505419081311467184,0.000708475999941,-0.00323871683447,-0.566025084138,0.824381351622,1.0,0.0,0.0,0.0,1.0,0.0,0.0,0.0,100000.0,0.0879563763738,-0.00348460208625,-0.128923639655,1.0,0.0,0.0,0.0,1.0,0.0,0.0,0.0,1.0,-0.398849994689,0.432976615429,9.62274711132,0.1,0.0,0.0,0.0,0.1,0.0,0.0,0.0,0.1
1505419081316906795,16194,1505419081316707397,0.000567975362355,-0.00319577886373,-0.566205242147,0.824257901489,1.0,0.0,0.0,0.0,1.0,0.0,0.0,0.0,100000.0,-0.0596753396094,-0.0143634760752,-0.0714515298605,1.0,0.0,0.0,0.0,1.0,0.0,0.0,0.0,1.0,-0.330888085812,0.408964493126,9.70538510084,0.1,0.0,0.0,0.0,0.1,0.0,0.0,0.0,0.1
1505419081320326348,16195,1505419081320047326,0.000525204502162,-0.00310329282898,-0.566335132244,0.82416904317,1.0,0.0,0.0,0.0,1.0,0.0,0.0,0.0,100000.0,-0.0371722057462,0.0271994955838,-0.0485378503799,1.0,0.0,0.0,0.0,1.0,0.0,0.0,0.0,1.0,-0.269466666877,0.34221329391,9.80496039391,0.1,0.0,0.0,0.0,0.1,0.0,0.0,0.0,0.1
1505419081325197900,16196,1505419081325026250,0.000300631833481,-0.00298166350139,-0.566659472781,0.823946637356,1.0,0.0,0.0,0.0,1.0,0.0,0.0,0.0,100000.0,-0.0966894477606,-0.012658059597,-0.142711222172,1.0,0.0,0.0,0.0,1.0,0.0,0.0,0.0,1.0,-0.385947465152,0.27012890093,9.61559683084,0.1,0.0,0.0,0.0,0.1,0.0,0.0,0.0,0.1
1505419081330355730,16197,1505419081330078885,0.000183493214285,-0.00289039795473,-0.566616759302,0.823976371025,1.0,0.0,0.0,0.0,1.0,0.0,0.0,0.0,100000.0,-0.0495690628886,0.00227251276374,0.0359483957291,1.0,0.0,0.0,0.0,1.0,0.0,0.0,0.0,1.0,-0.37750557363,0.124174981751,9.32347857952,0.1,0.0,0.0,0.0,0.1,0.0,0.0,0.0,0.1
1505419081335350517,16198,1505419081335147783,0.000333998318173,-0.00299429138441,-0.566752867566,0.823882339761,1.0,0.0,0.0,0.0,1.0,0.0,0.0,0.0,100000.0,0.0858401209116,-0.0116969048977,-0.0504572689533,1.0,0.0,0.0,0.0,1.0,0.0,0.0,0.0,1.0,-0.551196136326,0.110121670179,9.03033343554,0.1,0.0,0.0,0.0,0.1,0.0,0.0,0.0,0.1
1505419081344086491,16199,1505419081343912618,0.000479369129207,-0.00316822784308,-0.56668728199,0.82392673034,1.0,0.0,0.0,0.0,1.0,0.0,0.0,0.0,100000.0,0.0934784188867,-0.0363533571362,0.0486027300358,1.0,0.0,0.0,0.0,1.0,0.0,0.0,0.0,1.0,-0.559229614586,0.170584402233,8.85415942669,0.1,0.0,0.0,0.0,0.1,0.0,0.0,0.0,0.1
1505419081345491017,16200,1505419081345369321,0.000757163251767,-0.0034431226434,-0.566448504813,0.824089596467,1.0,0.0,0.0,0.0,1.0,0.0,0.0,0.0,100000.0,0.153538092971,-0.0379987768829,0.130032494664,1.0,0.0,0.0,0.0,1.0,0.0,0.0,0.0,1.0,-0.558225174248,0.373006127775,8.97265512943,0.1,0.0,0.0,0.0,0.1,0.0,0.0,0.0,0.1
1505419081354523346,16201,1505419081354365432,0.000921491284305,-0.00378922487461,-0.566489724522,0.824059575904,1.0,0.0,0.0,0.0,1.0,0.0,0.0,0.0,100000.0,0.12260466814,-0.0873516947031,-0.00678192079067,1.0,0.0,0.0,0.0,1.0,0.0,0.0,0.0,1.0,-0.546122604609,0.502290592343,9.19628816843,0.1,0.0,0.0,0.0,0.1,0.0,0.0,0.0,0.1
1505419081355613732,16202,1505419081355433427,0.000949017968396,-0.00396606259208,-0.566280172513,0.824202727447,1.0,0.0,0.0,0.0,1.0,0.0,0.0,0.0,100000.0,0.0399419218302,-0.0578611716628,0.119660064578,1.0,0.0,0.0,0.0,1.0,0.0,0.0,0.0,1.0,-0.451533187926,0.48046766296,9.37952250242,0.1,0.0,0.0,0.0,0.1,0.0,0.0,0.0,0.1
1505419081362558229,16203,1505419081362374573,0.00105367258825,-0.00422910041753,-0.56639361644,0.824123337699,1.0,0.0,0.0,0.0,1.0,0.0,0.0,0.0,100000.0,0.0946130156517,-0.0668570995331,-0.0398209691048,1.0,0.0,0.0,0.0,1.0,0.0,0.0,0.0,1.0,-0.427254375815,0.329640685767,9.66313296556,0.1,0.0,0.0,0.0,0.1,0.0,0.0,0.0,0.1
1505419081371054224,16204,1505419081370790015,0.000829293842764,-0.00413890596119,-0.566502248459,0.824049382149,1.0,0.0,0.0,0.0,1.0,0.0,0.0,0.0,100000.0,-0.0819779187441,-0.0224197860807,-0.0380036644638,1.0,0.0,0.0,0.0,1.0,0.0,0.0,0.0,1.0,-0.395714956522,0.142804031447,9.76461309195,0.1,0.0,0.0,0.0,0.1,0.0,0.0,0.0,0.1
1505419081371059000,16205,1505419081370831086,0.000550291755042,-0.00402114436848,-0.566481649304,0.824064359488,1.0,0.0,0.0,0.0,1.0,0.0,0.0,0.0,100000.0,-0.10464464128,-0.0286354497075,0.0252017602324,1.0,0.0,0.0,0.0,1.0,0.0,0.0,0.0,1.0,-0.43517851308,0.0953561270609,9.83336408138,0.1,0.0,0.0,0.0,0.1,0.0,0.0,0.0,0.1
1505419081378603777,16206,1505419081378426755,0.000189342311323,-0.00377403922119,-0.566785346306,0.8238568395,1.0,0.0,0.0,0.0,1.0,0.0,0.0,0.0,100000.0,-0.166011065245,-0.0107592754066,-0.130772382021,1.0,0.0,0.0,0.0,1.0,0.0,0.0,0.0,1.0,-0.508685598522,0.130039611086,9.78738288879,0.1,0.0,0.0,0.0,0.1,0.0,0.0,0.0,0.1
1505419081381944041,16207,1505419081381756379,-0.000266208899458,-0.00348176364777,-0.566765693407,0.823871625456,1.0,0.0,0.0,0.0,1.0,0.0,0.0,0.0,100000.0,-0.205284014344,-0.0202777404338,0.0278653949499,1.0,0.0,0.0,0.0,1.0,0.0,0.0,0.0,1.0,-0.573629403859,0.161717741936,9.35591039658,0.1,0.0,0.0,0.0,0.1,0.0,0.0,0.0,0.1
1505419081385489995,16208,1505419081385319284,-0.000185402573792,-0.00351679265022,-0.566995473509,0.823713379044,1.0,0.0,0.0,0.0,1.0,0.0,0.0,0.0,100000.0,0.0419688075781,-0.0075279166922,-0.0954568535089,1.0,0.0,0.0,0.0,1.0,0.0,0.0,0.0,1.0,-0.585155551136,0.142266736366,9.23572890759,0.1,0.0,0.0,0.0,0.1,0.0,0.0,0.0,0.1
1505419081390550789,16209,1505419081390350567,-0.000136583405139,-0.00344488424648,-0.567153906417,0.823604614213,1.0,0.0,0.0,0.0,1.0,0.0,0.0,0.0,100000.0,0.00219844654202,0.02122733742,-0.0629974901676,1.0,0.0,0.0,0.0,1.0,0.0,0.0,0.0,1.0,-0.588392008096,0.243463552743,8.85445674658,0.1,0.0,0.0,0.0,0.1,0.0,0.0,0.0,0.1
1505419081395575675,16210,1505419081395414789,0.00020856854904,-0.00368244399617,-0.567116441465,0.823629369271,1.0,0.0,0.0,0.0,1.0,0.0,0.0,0.0,100000.0,0.174439027905,-0.00496725924313,0.0337006747723,1.0,0.0,0.0,0.0,1.0,0.0,0.0,0.0,1.0,-0.454344365001,0.240434204787,8.96330853701,0.1,0.0,0.0,0.0,0.1,0.0,0.0,0.0,0.1
1505419081400632702,16211,1505419081400463899,0.000522157460405,-0.00382533085796,-0.567410041121,0.823426341229,1.0,0.0,0.0,0.0,1.0,0.0,0.0,0.0,100000.0,0.12539857626,0.0206387713552,-0.128489509225,1.0,0.0,0.0,0.0,1.0,0.0,0.0,0.0,1.0,-0.413128760457,0.457349909842,9.12041785717,0.1,0.0,0.0,0.0,0.1,0.0,0.0,0.0,0.1
1505419081412106870,16212,1505419081411900059,0.000573930546173,-0.00393501963969,-0.567366309742,0.8234559228,1.0,0.0,0.0,0.0,1.0,0.0,0.0,0.0,100000.0,0.0336290001869,-0.0187707208097,0.0376830101013,1.0,0.0,0.0,0.0,1.0,0.0,0.0,0.0,1.0,-0.272292045504,0.447844873369,9.34201288223,0.1,0.0,0.0,0.0,0.1,0.0,0.0,0.0,0.1
1505419081413318050,16213,1505419081413126823,0.00085288840511,-0.00412838474761,-0.567623573694,0.823277418376,1.0,0.0,0.0,0.0,1.0,0.0,0.0,0.0,100000.0,0.132027521729,0.00652890652418,-0.109022021294,1.0,0.0,0.0,0.0,1.0,0.0,0.0,0.0,1.0,-0.214273906127,0.404568912089,9.77318630219,0.1,0.0,0.0,0.0,0.1,0.0,0.0,0.0,0.1
1505419081416128843,16214,1505419081415808481,0.000646951086545,-0.0040720998134,-0.567839616038,0.82312889022,1.0,0.0,0.0,0.0,1.0,0.0,0.0,0.0,100000.0,-0.0773088857532,-0.0195636413991,-0.0881557762623,1.0,0.0,0.0,0.0,1.0,0.0,0.0,0.0,1.0,-0.252738827094,0.250170627981,9.80343933105,0.1,0.0,0.0,0.0,0.1,0.0,0.0,0.0,0.1
1505419081422924089,16215,1505419081422762438,0.000467780985106,-0.0040547711123,-0.56790457155,0.823084283427,1.0,0.0,0.0,0.0,1.0,0.0,0.0,0.0,100000.0,-0.0498908162117,-0.0364377871156,-0.018711566925,1.0,0.0,0.0,0.0,1.0,0.0,0.0,0.0,1.0,-0.346948945522,0.104632031173,9.77769399881,0.1,0.0,0.0,0.0,0.1,0.0,0.0,0.0,0.1
1505419081425638511,16216,1505419081425441391,0.000174812671878,-0.00397029857969,-0.568199815966,0.822881021355,1.0,0.0,0.0,0.0,1.0,0.0,0.0,0.0,100000.0,-0.102944165468,-0.0486377179623,-0.124507851899,1.0,0.0,0.0,0.0,1.0,0.0,0.0,0.0,1.0,-0.530562048405,0.115115915984,9.53009604216,0.1,0.0,0.0,0.0,0.1,0.0,0.0,0.0,0.1
1505419081430732984,16217,1505419081430483324,-0.00025646801102,-0.00387371629473,-0.568107458755,0.822945225306,1.0,0.0,0.0,0.0,1.0,0.0,0.0,0.0,100000.0,-0.154419437051,-0.0769936591387,0.0604617297649,1.0,0.0,0.0,0.0,1.0,0.0,0.0,0.0,1.0,-0.553521722555,0.151057788916,9.16102392673,0.1,0.0,0.0,0.0,0.1,0.0,0.0,0.0,0.1
1505419081435588263,16218,1505419081435418639,-8.71598527399e-05,-0.00401201427704,-0.568171186838,0.822900600675,1.0,0.0,0.0,0.0,1.0,0.0,0.0,0.0,100000.0,0.0927121192217,-0.0255670081824,-0.0153596252203,1.0,0.0,0.0,0.0,1.0,0.0,0.0,0.0,1.0,-0.661988428235,0.240375408903,9.08821326494,0.1,0.0,0.0,0.0,0.1,0.0,0.0,0.0,0.1
1505419081443799722,16219,1505419081443611472,-9.67251103938e-05,-0.004026384957,-0.568099292607,0.822950164109,1.0,0.0,0.0,0.0,1.0,0.0,0.0,0.0,100000.0,-0.000290686264634,-0.0203848723322,0.0496372841299,1.0,0.0,0.0,0.0,1.0,0.0,0.0,0.0,1.0,-0.576374976337,0.261528912187,8.98829158545,0.1,0.0,0.0,0.0,0.1,0.0,0.0,0.0,0.1
1505419081448137133,16220,1505419081447949767,8.81371812608e-05,-0.00417458497956,-0.567925873738,0.823069114359,1.0,0.0,0.0,0.0,1.0,0.0,0.0,0.0,100000.0,0.0918058753014,-0.0185315627605,0.101191356778,1.0,0.0,0.0,0.0,1.0,0.0,0.0,0.0,1.0,-0.55774641037,0.385845571756,9.11432192326,0.1,0.0,0.0,0.0,0.1,0.0,0.0,0.0,0.1
1505419081454596776,16221,1505419081454308697,0.00023251636365,-0.00434879149668,-0.568018071284,0.823004559309,1.0,0.0,0.0,0.0,1.0,0.0,0.0,0.0,100000.0,0.0911892652512,-0.0302236154675,-0.0289515722543,1.0,0.0,0.0,0.0,1.0,0.0,0.0,0.0,1.0,-0.471153087914,0.261505200341,9.37360005379,0.1,0.0,0.0,0.0,0.1,0.0,0.0,0.0,0.1
1505419081455879104,16222,1505419081455625320,7.71204150693e-05,-0.00442130404098,-0.567888569435,0.823093566265,1.0,0.0,0.0,0.0,1.0,0.0,0.0,0.0,100000.0,-0.0440532118082,-0.0612157322466,0.0802573263645,1.0,0.0,0.0,0.0,1.0,0.0,0.0,0.0,1.0,-0.372554854304,0.46494449079,9.55159010887,0.1,0.0,0.0,0.0,0.1,0.0,0.0,0.0,0.1
1505419081460622506,16223,1505419081460452069,0.000406335439017,-0.00468078904721,-0.568008639447,0.823009180155,1.0,0.0,0.0,0.0,1.0,0.0,0.0,0.0,100000.0,0.171205148101,-0.0129243573174,-0.0452031493187,1.0,0.0,0.0,0.0,1.0,0.0,0.0,0.0,1.0,-0.369541095197,0.269031657651,9.78462815285,0.1,0.0,0.0,0.0,0.1,0.0,0.0,0.0,0.1
1505419081465643060,16224,1505419081465482729,0.000420290272818,-0.00469073940107,-0.568080392019,0.822959591063,1.0,0.0,0.0,0.0,1.0,0.0,0.0,0.0,100000.0,0.00290809758008,0.000178668648005,-0.0187223497778,1.0,0.0,0.0,0.0,1.0,0.0,0.0,0.0,1.0,-0.345488303155,0.365379273891,9.84059438705,0.1,0.0,0.0,0.0,0.1,0.0,0.0,0.0,0.1
1505419081477484068,16225,1505419081477259415,0.000596073107543,-0.00472751982918,-0.56813735174,0.822919950427,1.0,0.0,0.0,0.0,1.0,0.0,0.0,0.0,100000.0,0.0676117390394,0.0174300260842,-0.0100947786123,1.0,0.0,0.0,0.0,1.0,0.0,0.0,0.0,1.0,-0.541090217233,0.33422267586,9.67389372587,0.1,0.0,0.0,0.0,0.1,0.0,0.0,0.0,0.1
1505419081477493349,16226,1505419081477301247,0.000790047948322,-0.00476724699663,-0.568388196356,0.822746320213,1.0,0.0,0.0,0.0,1.0,0.0,0.0,0.0,100000.0,0.0757993757725,0.0165362432599,-0.108149006963,1.0,0.0,0.0,0.0,1.0,0.0,0.0,0.0,1.0,-0.572079536319,0.24572853595,9.60912296772,0.1,0.0,0.0,0.0,0.1,0.0,0.0,0.0,0.1
1505419081482401095,16227,1505419081482224312,0.000602001755241,-0.00470124459948,-0.568446320951,0.822706701134,1.0,0.0,0.0,0.0,1.0,0.0,0.0,0.0,100000.0,-0.0781935825944,-0.0365519188344,-0.0108598927036,1.0,0.0,0.0,0.0,1.0,0.0,0.0,0.0,1.0,-0.635837712884,0.387328045815,9.29355908632,0.1,0.0,0.0,0.0,0.1,0.0,0.0,0.0,0.1
1505419081486042694,16228,1505419081485856458,0.000866599022732,-0.00485360840482,-0.568710560226,0.822522942038,1.0,0.0,0.0,0.0,1.0,0.0,0.0,0.0,100000.0,0.134753882885,-0.00785164535046,-0.11165830493,1.0,0.0,0.0,0.0,1.0,0.0,0.0,0.0,1.0,-0.605192772299,0.0798389695585,9.17827023268,0.1,0.0,0.0,0.0,0.1,0.0,0.0,0.0,0.1
1505419081491109014,16229,1505419081490644311,0.000644649166644,-0.00477489496724,-0.568811846664,0.822453565802,1.0,0.0,0.0,0.0,1.0,0.0,0.0,0.0,100000.0,-0.0764581412077,-0.0288926102221,-0.0332040190697,1.0,0.0,0.0,0.0,1.0,0.0,0.0,0.0,1.0,-0.470304864645,0.107187835872,9.08319445848,0.1,0.0,0.0,0.0,0.1,0.0,0.0,0.0,0.1
1505419081495807386,16230,1505419081495629849,0.000497155635576,-0.00472646501148,-0.568927171132,0.822374177192,1.0,0.0,0.0,0.0,1.0,0.0,0.0,0.0,100000.0,-0.0421358421445,-0.0192522611469,-0.0386042296886,1.0,0.0,0.0,0.0,1.0,0.0,0.0,0.0,1.0,-0.379139445722,0.0114766974002,9.10199337006,0.1,0.0,0.0,0.0,0.1,0.0,0.0,0.0,0.1
1505419081500897557,16231,1505419081500757460,0.000353890274381,-0.00470229279435,-0.569078234835,0.822269861932,1.0,0.0,0.0,0.0,1.0,0.0,0.0,0.0,100000.0,-0.0354129821062,-0.0207838900387,-0.0577806830406,1.0,0.0,0.0,0.0,1.0,0.0,0.0,0.0,1.0,-0.25461089462,0.0302641044371,9.35219477415,0.1,0.0,0.0,0.0,0.1,0.0,0.0,0.0,0.1
1505419081505667818,16232,1505419081505538740,-0.00013675348768,-0.00452189044743,-0.569072827452,0.822274680907,1.0,0.0,0.0,0.0,1.0,0.0,0.0,0.0,100000.0,-0.199057534337,-0.0465988442302,0.0194539129734,1.0,0.0,0.0,0.0,1.0,0.0,0.0,0.0,1.0,-0.251935015619,0.255324130133,9.53535784483,0.1,0.0,0.0,0.0,0.1,0.0,0.0,0.0,0.1
1505419081516322701,16233,1505419081516079899,-0.000164980560081,-0.00457706278653,-0.569187328337,0.822195115856,1.0,0.0,0.0,0.0,1.0,0.0,0.0,0.0,100000.0,0.0118145421147,-0.0244868230075,-0.0403656065464,1.0,0.0,0.0,0.0,1.0,0.0,0.0,0.0,1.0,-0.332919418812,0.206329835579,9.6409397006,0.1,0.0,0.0,0.0,0.1,0.0,0.0,0.0,0.1
1505419081517389325,16234,1505419081517246299,-0.000520187834024,-0.0044159365587,-0.569145742268,0.82222463656,1.0,0.0,0.0,0.0,1.0,0.0,0.0,0.0,100000.0,-0.15557679534,-0.0313951820135,0.0374136269093,1.0,0.0,0.0,0.0,1.0,0.0,0.0,0.0,1.0,-0.423771198839,0.344787462056,9.68387058973,0.1,0.0,0.0,0.0,0.1,0.0,0.0,0.0,0.1
1505419081521173080,16235,1505419081521014554,-0.000696848507465,-0.00427244498181,-0.569153966467,0.822219571083,1.0,0.0,0.0,0.0,1.0,0.0,0.0,0.0,100000.0,-0.0920117348433,-0.0112514654174,0.0147808976471,1.0,0.0,0.0,0.0,1.0,0.0,0.0,0.0,1.0,-0.603158336133,0.306600073725,9.53078939915,0.1,0.0,0.0,0.0,0.1,0.0,0.0,0.0,0.1
1505419081526160729,16236,1505419081525940250,-0.000704435649053,-0.00416098337322,-0.569125843494,0.822239602704,1.0,0.0,0.0,0.0,1.0,0.0,0.0,0.0,100000.0,-0.0237851366401,0.0170869641006,0.0303832665086,1.0,0.0,0.0,0.0,1.0,0.0,0.0,0.0,1.0,-0.656396302581,0.270095843077,9.46634516716,0.1,0.0,0.0,0.0,0.1,0.0,0.0,0.0,0.1
1505419081531371083,16237,1505419081530892913,-0.00091638001863,-0.0038548264345,-0.569005720309,0.822324018144,1.0,0.0,0.0,0.0,1.0,0.0,0.0,0.0,100000.0,-0.143390372396,0.0359170697629,0.0727080479264,1.0,0.0,0.0,0.0,1.0,0.0,0.0,0.0,1.0,-0.674183289707,0.348048269749,9.35716509819,0.1,0.0,0.0,0.0,0.1,0.0,0.0,0.0,0.1
1505419081535826940,16238,1505419081535617705,-0.000603004446422,-0.00378519412367,-0.569027182555,0.822309779952,1.0,0.0,0.0,0.0,1.0,0.0,0.0,0.0,100000.0,0.0900973305106,0.0768557488918,0.00834573805332,1.0,0.0,0.0,0.0,1.0,0.0,0.0,0.0,1.0,-0.649889728427,0.256786616147,9.23458226919,0.1,0.0,0.0,0.0,0.1,0.0,0.0,0.0,0.1
1505419081543719948,16239,1505419081543535918,-0.000588341754894,-0.00351922940442,-0.568942297578,0.822369704515,1.0,0.0,0.0,0.0,1.0,0.0,0.0,0.0,100000.0,-0.0573406443,0.0788335353136,0.0563847571611,1.0,0.0,0.0,0.0,1.0,0.0,0.0,0.0,1.0,-0.5320069924,0.357867529243,9.21808948517,0.1,0.0,0.0,0.0,0.1,0.0,0.0,0.0,0.1
1505419081546298593,16240,1505419081546111555,-0.000543046033541,-0.00339164627909,-0.569057680874,0.822290433895,1.0,0.0,0.0,0.0,1.0,0.0,0.0,0.0,100000.0,-0.0227829907089,0.0456163845956,-0.040131315589,1.0,0.0,0.0,0.0,1.0,0.0,0.0,0.0,1.0,-0.465000092238,0.401731631905,9.14908615351,0.1,0.0,0.0,0.0,0.1,0.0,0.0,0.0,0.1
1505419081553614944,16241,1505419081553437864,-0.000475722076632,-0.00338548430258,-0.569193947107,0.822196182649,1.0,0.0,0.0,0.0,1.0,0.0,0.0,0.0,100000.0,0.0120185911655,0.0162970200181,-0.0477920100093,1.0,0.0,0.0,0.0,1.0,0.0,0.0,0.0,1.0,-0.40202562958,0.479121947289,9.27569711208,0.1,0.0,0.0,0.0,0.1,0.0,0.0,0.0,0.1
1505419081557036068,16242,1505419081556862473,-0.000778685154246,-0.00323965977556,-0.569324021967,0.822106475017,1.0,0.0,0.0,0.0,1.0,0.0,0.0,0.0,100000.0,-0.138089299202,-0.0235012695193,-0.0450757667422,1.0,0.0,0.0,0.0,1.0,0.0,0.0,0.0,1.0,-0.41889962852,0.402212403715,9.44973497391,0.1,0.0,0.0,0.0,0.1,0.0,0.0,0.0,0.1
1505419081561157529,16243,1505419081561043609,-0.000709385100108,-0.00324556772474,-0.569524781586,0.821967448396,1.0,0.0,0.0,0.0,1.0,0.0,0.0,0.0,100000.0,0.0198381617665,0.00721892621368,-0.0839162990451,1.0,0.0,0.0,0.0,1.0,0.0,0.0,0.0,1.0,-0.463697163761,0.346952924877,9.65011339188,0.1,0.0,0.0,0.0,0.1,0.0,0.0,0.0,0.1
1505419081567719743,16244,1505419081567532243,-0.000930056107366,-0.00299711887509,-0.569525996337,0.821967330111,1.0,0.0,0.0,0.0,1.0,0.0,0.0,0.0,100000.0,-0.116620831192,0.0228349491954,0.0180048495531,1.0,0.0,0.0,0.0,1.0,0.0,0.0,0.0,1.0,-0.474483406544,0.0865496682003,9.79081988335,0.1,0.0,0.0,0.0,0.1,0.0,0.0,0.0,0.1
1505419081580754450,16245,1505419081580525246,-0.00103455236641,-0.00273370477353,-0.569613119364,0.821907750789,1.0,0.0,0.0,0.0,1.0,0.0,0.0,0.0,100000.0,-0.0817316994071,0.0539681576192,-0.0267314910889,1.0,0.0,0.0,0.0,1.0,0.0,0.0,0.0,1.0,-0.519093729556,0.0882062025368,9.75059758425,0.1,0.0,0.0,0.0,0.1,0.0,0.0,0.0,0.1
1505419081580783525,16246,1505419081580565942,-0.000987633395739,-0.00254328150517,-0.5696423652,0.821888150583,1.0,0.0,0.0,0.0,1.0,0.0,0.0,0.0,100000.0,-0.0166834965348,0.0619620122015,0.00186820328236,1.0,0.0,0.0,0.0,1.0,0.0,0.0,0.0,1.0,-0.555521439761,0.0718611338176,9.59593516588,0.1,0.0,0.0,0.0,0.1,0.0,0.0,0.0,0.1
1505419081582556217,16247,1505419081582334682,-0.00107526085802,-0.00230204628506,-0.569643155433,0.821888203994,1.0,0.0,0.0,0.0,1.0,0.0,0.0,0.0,100000.0,-0.0793029814959,0.0453738383949,0.0180597603321,1.0,0.0,0.0,0.0,1.0,0.0,0.0,0.0,1.0,-0.607231078297,0.177677620947,9.39138609171,0.1,0.0,0.0,0.0,0.1,0.0,0.0,0.0,0.1
1505419081586259795,16248,1505419081586032531,-0.000817888786945,-0.00223635450204,-0.569793755455,0.821784281926,1.0,0.0,0.0,0.0,1.0,0.0,0.0,0.0,100000.0,0.0687231123447,0.0660824999213,-0.0548633001745,1.0,0.0,0.0,0.0,1.0,0.0,0.0,0.0,1.0,-0.632101207972,0.33947487697,9.24261574745,0.1,0.0,0.0,0.0,0.1,0.0,0.0,0.0,0.1
1505419081591448447,16249,1505419081591273370,-0.00074764549209,-0.00210451518441,-0.56977255149,0.821799398643,1.0,0.0,0.0,0.0,1.0,0.0,0.0,0.0,100000.0,-0.00933793932199,0.0493970513344,0.0245520323515,1.0,0.0,0.0,0.0,1.0,0.0,0.0,0.0,1.0,-0.584134463221,0.30076274313,9.1421847105,0.1,0.0,0.0,0.0,0.1,0.0,0.0,0.0,0.1
1505419081596375367,16250,1505419081596184766,-0.00063752184069,-0.00202170286973,-0.569901747488,0.821710109767,1.0,0.0,0.0,0.0,1.0,0.0,0.0,0.0,100000.0,0.00752317532897,0.0466503314674,-0.0457011386752,1.0,0.0,0.0,0.0,1.0,0.0,0.0,0.0,1.0,-0.470315305889,0.428186494112,9.2509967804,0.1,0.0,0.0,0.0,0.1,0.0,0.0,0.0,0.1
1505419081604039059,16251,1505419081603818980,-0.000544099860888,-0.00205479762554,-0.570052199928,0.821605727292,1.0,0.0,0.0,0.0,1.0,0.0,0.0,0.0,100000.0,0.0379810035229,0.0132245430723,-0.0545231625438,1.0,0.0,0.0,0.0,1.0,0.0,0.0,0.0,1.0,-0.340103834122,0.297734234855,9.36109976768,0.1,0.0,0.0,0.0,0.1,0.0,0.0,0.0,0.1
1505419081612232951,16252,1505419081612013514,-0.000668905918943,-0.00198949631904,-0.57010977898,0.821565842998,1.0,0.0,0.0,0.0,1.0,0.0,0.0,0.0,100000.0,-0.0560548007488,-0.00278887711465,-0.011958733201,1.0,0.0,0.0,0.0,1.0,0.0,0.0,0.0,1.0,-0.290009028837,0.251871108636,9.58389809132,0.1,0.0,0.0,0.0,0.1,0.0,0.0,0.0,0.1
1505419081612241819,16253,1505419081612054645,-0.000638686186761,-0.00202133533727,-0.570374938049,0.821381723883,1.0,0.0,0.0,0.0,1.0,0.0,0.0,0.0,100000.0,0.0194098353386,0.00256134569645,-0.112490355968,1.0,0.0,0.0,0.0,1.0,0.0,0.0,0.0,1.0,-0.294353279844,0.284760168195,9.70337746143,0.1,0.0,0.0,0.0,0.1,0.0,0.0,0.0,0.1
1505419081616200577,16254,1505419081616038905,-0.00071703792007,-0.00193508711732,-0.570418187885,0.82135183218,1.0,0.0,0.0,0.0,1.0,0.0,0.0,0.0,100000.0,-0.0368183963001,0.0114285908639,-0.00328436493874,1.0,0.0,0.0,0.0,1.0,0.0,0.0,0.0,1.0,-0.359241209924,0.121228041127,9.71478017569,0.1,0.0,0.0,0.0,0.1,0.0,0.0,0.0,0.1
1505419081621217189,16255,1505419081621060760,-0.000825842095522,-0.00178521976531,-0.570554814723,0.821257167014,1.0,0.0,0.0,0.0,1.0,0.0,0.0,0.0,100000.0,-0.0693766176701,0.0176403187215,-0.0497514307499,1.0,0.0,0.0,0.0,1.0,0.0,0.0,0.0,1.0,-0.514086569101,0.229649276286,9.69001266956,0.1,0.0,0.0,0.0,0.1,0.0,0.0,0.0,0.1
1505419081626260016,16256,1505419081626084839,-0.000814900606667,-0.00170786237639,-0.570662463153,0.821182545048,1.0,0.0,0.0,0.0,1.0,0.0,0.0,0.0,100000.0,-0.0118359550834,0.0136763863266,-0.038294583559,1.0,0.0,0.0,0.0,1.0,0.0,0.0,0.0,1.0,-0.576909487695,0.279556960613,9.50686537027,0.1,0.0,0.0,0.0,0.1,0.0,0.0,0.0,0.1
1505419081632253502,16257,1505419081632037028,-0.000924757802567,-0.00151460794373,-0.570562572079,0.821252215905,1.0,0.0,0.0,0.0,1.0,0.0,0.0,0.0,100000.0,-0.080744177103,0.0211794506758,0.0664104521275,1.0,0.0,0.0,0.0,1.0,0.0,0.0,0.0,1.0,-0.70657261163,0.281171191484,9.41472657919,0.1,0.0,0.0,0.0,0.1,0.0,0.0,0.0,0.1
1505419081636304084,16258,1505419081636120941,-0.000845820705656,-0.00143132421895,-0.570634294263,0.821202616964,1.0,0.0,0.0,0.0,1.0,0.0,0.0,0.0,100000.0,0.00010828115046,0.0292210131884,-0.0179492048919,1.0,0.0,0.0,0.0,1.0,0.0,0.0,0.0,1.0,-0.66425870508,0.35393012166,9.1884889245,0.1,0.0,0.0,0.0,0.1,0.0,0.0,0.0,0.1
1505419081643810102,16259,1505419081643616762,-0.000848076738947,-0.00131284897611,-0.570448192942,0.821332098705,1.0,0.0,0.0,0.0,1.0,0.0,0.0,0.0,100000.0,-0.0275359936059,0.0321215465665,0.107143461704,1.0,0.0,0.0,0.0,1.0,0.0,0.0,0.0,1.0,-0.544811790437,0.247831150517,9.16937400103,0.1,0.0,0.0,0.0,0.1,0.0,0.0,0.0,0.1
1505419081646364830,16260,1505419081646164058,-0.000916832547599,-0.00124385084858,-0.570362310832,0.821391774147,1.0,0.0,0.0,0.0,1.0,0.0,0.0,0.0,100000.0,-0.0474142432213,-0.00518572609872,0.0591571182013,1.0,0.0,0.0,0.0,1.0,0.0,0.0,0.0,1.0,-0.558010289073,0.371531758457,9.08321957588,0.1,0.0,0.0,0.0,0.1,0.0,0.0,0.0,0.1
1505419081651515727,16261,1505419081651317238,-0.000920846073429,-0.00132605756366,-0.570383685121,0.821376798651,1.0,0.0,0.0,0.0,1.0,0.0,0.0,0.0,100000.0,0.0150847118348,-0.0223223902285,0.00797751545906,1.0,0.0,0.0,0.0,1.0,0.0,0.0,0.0,1.0,-0.35014513433,0.346382781863,9.31523014307,0.1,0.0,0.0,0.0,0.1,0.0,0.0,0.0,0.1
1505419081659470390,16262,1505419081659300294,-0.00110382217113,-0.00128402308529,-0.570254839698,0.821466098304,1.0,0.0,0.0,0.0,1.0,0.0,0.0,0.0,100000.0,-0.0770026296377,-0.0323605537415,0.0815912187099,1.0,0.0,0.0,0.0,1.0,0.0,0.0,0.0,1.0,-0.454402850568,0.371011521667,9.43941698074,0.1,0.0,0.0,0.0,0.1,0.0,0.0,0.0,0.1
1505419081662702329,16263,1505419081662539972,-0.00104176072811,-0.00131645672823,-0.570419587921,0.821351736708,1.0,0.0,0.0,0.0,1.0,0.0,0.0,0.0,100000.0,0.0191785488278,0.00220707058907,-0.066553235054,1.0,0.0,0.0,0.0,1.0,0.0,0.0,0.0,1.0,-0.423844652623,0.433524087071,9.6794178009,0.1,0.0,0.0,0.0,0.1,0.0,0.0,0.0,0.1
1505419081667537521,16264,1505419081667378213,-0.000963137851185,-0.00112668612468,-0.570441291664,0.821337041481,1.0,0.0,0.0,0.0,1.0,0.0,0.0,0.0,100000.0,-0.0173846241087,0.0776683986187,0.00697453320026,1.0,0.0,0.0,0.0,1.0,0.0,0.0,0.0,1.0,-0.435679802299,0.227279314771,9.81118950844,0.1,0.0,0.0,0.0,0.1,0.0,0.0,0.0,0.1
1505419081671898764,16265,1505419081671700036,-0.000907688560481,-0.000878285509758,-0.570549090618,0.821262528009,1.0,0.0,0.0,0.0,1.0,0.0,0.0,0.0,100000.0,-0.0370353385806,0.0809665098786,-0.0324273742735,1.0,0.0,0.0,0.0,1.0,0.0,0.0,0.0,1.0,-0.585069794208,0.223027428612,9.73563637733,0.1,0.0,0.0,0.0,0.1,0.0,0.0,0.0,0.1
1505419081679127879,16266,1505419081678969205,-0.000704948673482,-0.000647151543034,-0.570792820658,0.821093563565,1.0,0.0,0.0,0.0,1.0,0.0,0.0,0.0,100000.0,0.0179378688335,0.116907157004,-0.10408641398,1.0,0.0,0.0,0.0,1.0,0.0,0.0,0.0,1.0,-0.501272644103,0.204622199386,9.69026676416,0.1,0.0,0.0,0.0,0.1,0.0,0.0,0.0,0.1
1505419081681607476,16267,1505419081681424594,-0.000704413796144,-0.00037119716477,-0.570785791738,0.821098621338,1.0,0.0,0.0,0.0,1.0,0.0,0.0,0.0,100000.0,-0.0586225539446,0.0765558555722,0.022642435506,1.0,0.0,0.0,0.0,1.0,0.0,0.0,0.0,1.0,-0.650034372509,0.165723619983,9.31218276024,0.1,0.0,0.0,0.0,0.1,0.0,0.0,0.0,0.1
1505419081686514232,16268,1505419081686376505,-0.000500203292231,-0.00032176753738,-0.571029336983,0.820929438239,1.0,0.0,0.0,0.0,1.0,0.0,0.0,0.0,100000.0,0.0536874979734,0.0544000193477,-0.101204514503,1.0,0.0,0.0,0.0,1.0,0.0,0.0,0.0,1.0,-0.596583565325,0.294579026103,9.07272400856,0.1,0.0,0.0,0.0,0.1,0.0,0.0,0.0,0.1
1505419081691759872,16269,1505419081691521791,-0.000267257386027,-0.00029245162513,-0.571115279581,0.820869770716,1.0,0.0,0.0,0.0,1.0,0.0,0.0,0.0,100000.0,0.0708874315023,0.0592272691429,-0.0265171825886,1.0,0.0,0.0,0.0,1.0,0.0,0.0,0.0,1.0,-0.485432547331,0.241296155006,8.84623401165,0.1,0.0,0.0,0.0,0.1,0.0,0.0,0.0,0.1
1505419081696240218,16270,1505419081696125214,-7.26358194137e-05,-0.0003640929981,-0.571208351363,0.820805020388,1.0,0.0,0.0,0.0,1.0,0.0,0.0,0.0,100000.0,0.0801846534014,0.0142043847591,-0.0289740264416,1.0,0.0,0.0,0.0,1.0,0.0,0.0,0.0,1.0,-0.498239754885,0.333471234888,8.77804261446,0.1,0.0,0.0,0.0,0.1,0.0,0.0,0.0,0.1
1505419081701504671,16271,1505419081701392501,0.000280678146726,-0.000482618020321,-0.571516203739,0.820590590468,1.0,0.0,0.0,0.0,1.0,0.0,0.0,0.0,100000.0,0.142460227013,0.0509978868067,-0.131931066513,1.0,0.0,0.0,0.0,1.0,0.0,0.0,0.0,1.0,-0.261756575108,0.26976181455,9.07253650427,0.1,0.0,0.0,0.0,0.1,0.0,0.0,0.0,0.1
1505419081712116372,16272,1505419081711907053,0.000299329283571,-0.000516900195667,-0.571544858953,0.820570604775,1.0,0.0,0.0,0.0,1.0,0.0,0.0,0.0,100000.0,0.0186265259981,0.00594162382185,0.00497654080391,1.0,0.0,0.0,0.0,1.0,0.0,0.0,0.0,1.0,-0.205683409423,0.23724732548,9.32467136383,0.1,0.0,0.0,0.0,0.1,0.0,0.0,0.0,0.1
1505419081714236185,16273,1505419081714053893,0.000432366958967,-0.000631114996689,-0.571809632056,0.820385981987,1.0,0.0,0.0,0.0,1.0,0.0,0.0,0.0,100000.0,0.0672711282969,0.00331065710634,-0.112883478403,1.0,0.0,0.0,0.0,1.0,0.0,0.0,0.0,1.0,-0.234191728383,0.278726954758,9.71908810139,0.1,0.0,0.0,0.0,0.1,0.0,0.0,0.0,0.1
1505419081716744046,16274,1505419081716583560,0.000375661584367,-0.000559793177834,-0.571931390621,0.820301182452,1.0,0.0,0.0,0.0,1.0,0.0,0.0,0.0,100000.0,-0.0264950525016,0.024029975757,-0.0425185263157,1.0,0.0,0.0,0.0,1.0,0.0,0.0,0.0,1.0,-0.20973797068,0.139504479803,9.89211192131,0.1,0.0,0.0,0.0,0.1,0.0,0.0,0.0,0.1
1505419081721997384,16275,1505419081721802819,0.000199515790135,-0.000415712446363,-0.571945874647,0.820291231119,1.0,0.0,0.0,0.0,1.0,0.0,0.0,0.0,100000.0,-0.0891093537211,0.00570699106902,0.00997576117516,1.0,0.0,0.0,0.0,1.0,0.0,0.0,0.0,1.0,-0.422230713814,0.255117185414,9.91693024635,0.1,0.0,0.0,0.0,0.1,0.0,0.0,0.0,0.1
1505419081728525688,16276,1505419081728371007,0.000209054767569,-0.000188405964145,-0.572160703153,0.820141482043,1.0,0.0,0.0,0.0,1.0,0.0,0.0,0.0,100000.0,-0.0431156232953,0.0715100094676,-0.0864846855402,1.0,0.0,0.0,0.0,1.0,0.0,0.0,0.0,1.0,-0.510260327905,0.166203314811,9.79432814121,0.1,0.0,0.0,0.0,0.1,0.0,0.0,0.0,0.1
1505419081731499677,16277,1505419081731304260,5.18920733795e-05,0.000165953469122,-0.5719960746,0.820256338231,1.0,0.0,0.0,0.0,1.0,0.0,0.0,0.0,100000.0,-0.127152308822,0.0744759961963,0.0964785888791,1.0,0.0,0.0,0.0,1.0,0.0,0.0,0.0,1.0,-0.621880179644,0.152712780796,9.59205131531,0.1,0.0,0.0,0.0,0.1,0.0,0.0,0.0,0.1
1505419081745220806,16278,1505419081745046048,0.000115095379509,0.000409135131429,-0.572017455022,0.820241336749,1.0,0.0,0.0,0.0,1.0,0.0,0.0,0.0,100000.0,-0.0331836864352,0.0729565098882,0.00805877521634,1.0,0.0,0.0,0.0,1.0,0.0,0.0,0.0,1.0,-0.770687323809,0.171761670709,9.21873143911,0.1,0.0,0.0,0.0,0.1,0.0,0.0,0.0,0.1
1505419081745231317,16279,1505419081745073795,0.000176913685947,0.000589421677291,-0.571931446148,0.820301189924,1.0,0.0,0.0,0.0,1.0,0.0,0.0,0.0,100000.0,-0.014975272119,0.0663961470127,0.0582367070019,1.0,0.0,0.0,0.0,1.0,0.0,0.0,0.0,1.0,-0.593447139859,0.166423274577,9.0325688839,0.1,0.0,0.0,0.0,0.1,0.0,0.0,0.0,0.1
1505419081746737055,16280,1505419081746639271,0.000173743585965,0.000676673770097,-0.571752443714,0.820425898563,1.0,0.0,0.0,0.0,1.0,0.0,0.0,0.0,100000.0,-0.0252365171909,0.0175045095384,0.107487097383,1.0,0.0,0.0,0.0,1.0,0.0,0.0,0.0,1.0,-0.579293048382,0.325668887794,8.74415457249,0.1,0.0,0.0,0.0,0.1,0.0,0.0,0.0,0.1
1505419081752032528,16281,1505419081751826500,0.000382109034882,0.000563376312933,-0.571881426203,0.820336011012,1.0,0.0,0.0,0.0,1.0,0.0,0.0,0.0,100000.0,0.0885061994195,0.0171726159751,-0.0475732684135,1.0,0.0,0.0,0.0,1.0,0.0,0.0,0.0,1.0,-0.338425714523,0.354187538475,8.84168016911,0.1,0.0,0.0,0.0,0.1,0.0,0.0,0.0,0.1
1505419081756933563,16282,1505419081756781038,0.000543021840808,0.000504410203006,-0.571788428415,0.82040078244,1.0,0.0,0.0,0.0,1.0,0.0,0.0,0.0,100000.0,0.0596002191305,0.0297682769597,0.062334228307,1.0,0.0,0.0,0.0,1.0,0.0,0.0,0.0,1.0,-0.20488826856,0.47811396569,9.02393901348,0.1,0.0,0.0,0.0,0.1,0.0,0.0,0.0,0.1
1505419081761793943,16283,1505419081761665214,0.000807320107989,0.000288181916782,-0.571938930401,0.820295754638,1.0,0.0,0.0,0.0,1.0,0.0,0.0,0.0,100000.0,0.121645674109,0.00554948858917,-0.0553514063358,1.0,0.0,0.0,0.0,1.0,0.0,0.0,0.0,1.0,-0.201948620379,0.501832637936,9.33358979225,0.1,0.0,0.0,0.0,0.1,0.0,0.0,0.0,0.1
