%time,field.header.seq,field.header.stamp,field.header.frame_id,field.orientation.x,field.orientation.y,field.orientation.z,field.orientation.w,field.orientation_covariance0,field.orientation_covariance1,field.orientation_covariance2,field.orientation_covariance3,field.orientation_covariance4,field.orientation_covariance5,field.orientation_covariance6,field.orientation_covariance7,field.orientation_covariance8,field.angular_velocity.x,field.angular_velocity.y,field.angular_velocity.z,field.angular_velocity_covariance0,field.angular_velocity_covariance1,field.angular_velocity_covariance2,field.angular_velocity_covariance3,field.angular_velocity_covariance4,field.angular_velocity_covariance5,field.angular_velocity_covariance6,field.angular_velocity_covariance7,field.angular_velocity_covariance8,field.linear_acceleration.x,field.linear_acceleration.y,field.linear_acceleration.z,field.linear_acceleration_covariance0,field.linear_acceleration_covariance1,field.linear_acceleration_covariance2,field.linear_acceleration_covariance3,field.linear_acceleration_covariance4,field.linear_acceleration_covariance5,field.linear_acceleration_covariance6,field.linear_acceleration_covariance7,field.linear_acceleration_covariance8
1505402118923124234,16879,1505402118922936673,ardrone_base_link,-0.0213580264581,-0.00753591599396,-0.905565427197,0.423601583734,1.0,0.0,0.0,0.0,1.0,0.0,0.0,0.0,100000.0,0.0003895573318,0.000470266677439,0.000585336587392,1.0,0.0,0.0,0.0,1.0,0.0,0.0,0.0,1.0,0.185331435874,0.112581760436,9.23232754469,0.1,0.0,0.0,0.0,0.1,0.0,0.0,0.0,0.1
1505402118927508299,16880,1505402118927203943,ardrone_base_link,-0.0213659299552,-0.00753961402524,-0.905565257204,0.423601482767,1.0,0.0,0.0,0.0,1.0,0.0,0.0,0.0,100000.0,-0.000697702169418,0.000391040928662,0.000189049635082,1.0,0.0,0.0,0.0,1.0,0.0,0.0,0.0,1.0,0.184890001267,0.11280650273,9.23783993721,0.1,0.0,0.0,0.0,0.1,0.0,0.0,0.0,0.1
1505402118932115558,16881,1505402118931898772,ardrone_base_link,-0.0213658636929,-0.00753980179816,-0.905561534372,0.423609441258,1.0,0.0,0.0,0.0,1.0,0.0,0.0,0.0,100000.0,0.00138319283724,0.000835145881865,0.00142970134038,1.0,0.0,0.0,0.0,1.0,0.0,0.0,0.0,1.0,0.185555995628,0.113244542107,9.2567696929,0.1,0.0,0.0,0.0,0.1,0.0,0.0,0.0,0.1
1505402118937092701,16882,1505402118936968437,ardrone_base_link,-0.0213621017177,-0.00754788911504,-0.905557802046,0.423617465566,1.0,0.0,0.0,0.0,1.0,0.0,0.0,0.0,100000.0,0.00100473314524,0.000679801276419,0.000500004272908,1.0,0.0,0.0,0.0,1.0,0.0,0.0,0.0,1.0,0.185957727954,0.113876766711,9.28581591845,0.1,0.0,0.0,0.0,0.1,0.0,0.0,0.0,0.1
1505402118943217205,16883,1505402118942996351,ardrone_base_link,-0.0213620353827,-0.00754807685432,-0.905554079074,0.423625423991,1.0,0.0,0.0,0.0,1.0,0.0,0.0,0.0,100000.0,0.000925373286009,0.000783390365541,0.00136661529541,1.0,0.0,0.0,0.0,1.0,0.0,0.0,0.0,1.0,0.185751312599,0.114338773489,9.30558798313,0.1,0.0,0.0,0.0,0.1,0.0,0.0,0.0,0.1
1505402118946995237,16884,1505402118946796853,ardrone_base_link,-0.0213620353827,-0.00754807685432,-0.905554079074,0.423625423991,1.0,0.0,0.0,0.0,1.0,0.0,0.0,0.0,100000.0,1.52848660946e-05,0.000194100663066,0.000472312327474,1.0,0.0,0.0,0.0,1.0,0.0,0.0,0.0,1.0,0.186277737468,0.114135826379,9.29090248346,0.1,0.0,0.0,0.0,0.1,0.0,0.0,0.0,0.1
1505402118952079235,16885,1505402118951919703,ardrone_base_link,-0.0213698715344,-0.00755195917184,-0.905550242393,0.42363316089,1.0,0.0,0.0,0.0,1.0,0.0,0.0,0.0,100000.0,-0.000322587817209,-0.000235287472606,0.000290720723569,1.0,0.0,0.0,0.0,1.0,0.0,0.0,0.0,1.0,0.186243255809,0.113900651969,9.28224107027,0.1,0.0,0.0,0.0,0.1,0.0,0.0,0.0,0.1
1505402118958430189,16886,1505402118958289762,ardrone_base_link,-0.0213698051637,-0.00755214697941,-0.905546519283,0.423641119249,1.0,0.0,0.0,0.0,1.0,0.0,0.0,0.0,100000.0,-4.68902289867e-05,-0.000250546261668,0.000439622905105,1.0,0.0,0.0,0.0,1.0,0.0,0.0,0.0,1.0,0.186461152881,0.113658732735,9.27677657604,0.1,0.0,0.0,0.0,0.1,0.0,0.0,0.0,0.1
1505402118962532660,16887,1505402118962289091,ardrone_base_link,-0.0213698051637,-0.00755214697941,-0.905546519283,0.423641119249,1.0,0.0,0.0,0.0,1.0,0.0,0.0,0.0,100000.0,0.000767454504967,-4.11160290241e-05,0.000114289119665,1.0,0.0,0.0,0.0,1.0,0.0,0.0,0.0,1.0,0.186467395723,0.113608516194,9.27995889187,0.1,0.0,0.0,0.0,0.1,0.0,0.0,0.0,0.1
1505402118968719259,16888,1505402118968482722,ardrone_base_link,-0.0213739441131,-0.007563931994,-0.905542616423,0.42364904259,1.0,0.0,0.0,0.0,1.0,0.0,0.0,0.0,100000.0,0.00080531463027,0.000610545277596,0.000738586764783,1.0,0.0,0.0,0.0,1.0,0.0,0.0,0.0,1.0,0.186062907055,0.113786838762,9.29088788033,0.1,0.0,0.0,0.0,0.1,0.0,0.0,0.0,0.1
1505402118975962026,16889,1505402118975771116,ardrone_base_link,-0.0213739441131,-0.007563931994,-0.905542616423,0.42364904259,1.0,0.0,0.0,0.0,1.0,0.0,0.0,0.0,100000.0,0.00120789557695,0.000284876674414,0.000520632835105,1.0,0.0,0.0,0.0,1.0,0.0,0.0,0.0,1.0,0.185842363164,0.113754447177,9.28524172306,0.1,0.0,0.0,0.0,0.1,0.0,0.0,0.0,0.1
1505402118977525838,16890,1505402118977335896,ardrone_base_link,-0.0213738776371,-0.00756411983735,-0.905538893174,0.423657000881,1.0,0.0,0.0,0.0,1.0,0.0,0.0,0.0,100000.0,0.000460240989923,0.000332315452397,0.000740957038943,1.0,0.0,0.0,0.0,1.0,0.0,0.0,0.0,1.0,0.185436687991,0.113793729618,9.28557175398,0.1,0.0,0.0,0.0,0.1,0.0,0.0,0.0,0.1
1505402118983775530,16891,1505402118983378735,ardrone_base_link,-0.0213738121667,-0.00756430483403,-0.905535226269,0.42366483856,1.0,0.0,0.0,0.0,1.0,0.0,0.0,0.0,100000.0,6.42500817776e-05,-0.000493135303259,0.00132095324807,1.0,0.0,0.0,0.0,1.0,0.0,0.0,0.0,1.0,0.170017617941,0.113628212176,9.28288711309,0.1,0.0,0.0,0.0,0.1,0.0,0.0,0.0,0.1
1505402118987810332,16892,1505402118987537506,ardrone_base_link,-0.0213737456874,-0.00756449267622,-0.90553150288,0.423672796787,1.0,0.0,0.0,0.0,1.0,0.0,0.0,0.0,100000.0,-0.000252481549978,-8.86404886842e-05,0.000852329656482,1.0,0.0,0.0,0.0,1.0,0.0,0.0,0.0,1.0,0.166541815549,0.11349334307,9.28254773617,0.1,0.0,0.0,0.0,0.1,0.0,0.0,0.0,0.1
1505402118992577359,16893,1505402118992382772,ardrone_base_link,-0.0213736792065,-0.00756468051783,-0.905527779422,0.423680754981,1.0,0.0,0.0,0.0,1.0,0.0,0.0,0.0,100000.0,-0.000442314893007,-0.000436908565462,0.00127424066886,1.0,0.0,0.0,0.0,1.0,0.0,0.0,0.0,1.0,0.150542818382,0.113371899724,9.28583986759,0.1,0.0,0.0,0.0,0.1,0.0,0.0,0.0,0.1
1505402118997278322,16894,1505402118997162245,ardrone_base_link,-0.0213699819372,-0.00757258264483,-0.905527713374,0.423680941483,1.0,0.0,0.0,0.0,1.0,0.0,0.0,0.0,100000.0,0.000418443232775,-0.000362205319107,0.000267665833235,1.0,0.0,0.0,0.0,1.0,0.0,0.0,0.0,1.0,0.168900897726,0.113427692838,9.28436086178,0.1,0.0,0.0,0.0,0.1,0.0,0.0,0.0,0.1
1505402119003288828,16895,1505402119002960651,ardrone_base_link,-0.0213778176494,-0.00757646550994,-0.905523876015,0.423688678217,1.0,0.0,0.0,0.0,1.0,0.0,0.0,0.0,100000.0,5.78723847866e-05,-0.000244199298322,-1.65994279087e-05,1.0,0.0,0.0,0.0,1.0,0.0,0.0,0.0,1.0,0.179798909277,0.113603313826,9.28506940603,0.1,0.0,0.0,0.0,0.1,0.0,0.0,0.0,0.1
1505402119009606880,16896,1505402119009422857,ardrone_base_link,-0.0213778176494,-0.00757646550994,-0.905523876015,0.423688678217,1.0,0.0,0.0,0.0,1.0,0.0,0.0,0.0,100000.0,0.00058988109231,-0.000345324195223,-0.000406069448218,1.0,0.0,0.0,0.0,1.0,0.0,0.0,0.0,1.0,0.17688594833,0.113755679317,9.28430361748,0.1,0.0,0.0,0.0,0.1,0.0,0.0,0.0,0.1
1505402119012579594,16897,1505402119012404114,ardrone_base_link,-0.0213778176494,-0.00757646550994,-0.905523876015,0.423688678217,1.0,0.0,0.0,0.0,1.0,0.0,0.0,0.0,100000.0,0.000307217240334,0.000189609825611,-0.00130344624631,1.0,0.0,0.0,0.0,1.0,0.0,0.0,0.0,1.0,0.179719249159,0.113920566998,9.28385851383,0.1,0.0,0.0,0.0,0.1,0.0,0.0,0.0,0.1
1505402119017614025,16898,1505402119017433710,ardrone_base_link,-0.0213740535453,-0.00758455568329,-0.905520086263,0.423696822887,1.0,0.0,0.0,0.0,1.0,0.0,0.0,0.0,100000.0,0.00113310664892,-0.000197656452656,-0.000365050858818,1.0,0.0,0.0,0.0,1.0,0.0,0.0,0.0,1.0,0.129153802991,0.113763546757,9.28459100723,0.1,0.0,0.0,0.0,0.1,0.0,0.0,0.0,0.1
1505402119024629471,16899,1505402119024447665,ardrone_base_link,-0.0213740535453,-0.00758455568329,-0.905520086263,0.423696822887,1.0,0.0,0.0,0.0,1.0,0.0,0.0,0.0,100000.0,0.00175705552101,-0.000126847065985,-0.000118215102702,1.0,0.0,0.0,0.0,1.0,0.0,0.0,0.0,1.0,0.152405713312,0.113826741837,9.28418387175,0.1,0.0,0.0,0.0,0.1,0.0,0.0,0.0,0.1
1505402119031961973,16900,1505402119031738721,ardrone_base_link,-0.0213623892271,-0.00758894467232,-0.905516523099,0.423704947622,1.0,0.0,0.0,0.0,1.0,0.0,0.0,0.0,100000.0,0.00160099938512,-0.000245611183345,0.00167102832347,1.0,0.0,0.0,0.0,1.0,0.0,0.0,0.0,1.0,0.136924735084,0.113605933264,9.28442803621,0.1,0.0,0.0,0.0,0.1,0.0,0.0,0.0,0.1
1505402119034619674,16901,1505402119034267778,ardrone_base_link,-0.0213623225313,-0.00758913241413,-0.905512799359,0.423712905684,1.0,0.0,0.0,0.0,1.0,0.0,0.0,0.0,100000.0,0.00106384605169,1.67852267623e-05,0.00183718558401,1.0,0.0,0.0,0.0,1.0,0.0,0.0,0.0,1.0,0.164399516955,0.11348084826,9.2844186902,0.1,0.0,0.0,0.0,0.1,0.0,0.0,0.0,0.1
1505402119037621889,16902,1505402119037405309,ardrone_base_link,-0.0213622568444,-0.00758931731079,-0.90550913197,0.423720743137,1.0,0.0,0.0,0.0,1.0,0.0,0.0,0.0,100000.0,-0.000591047108173,0.000203942894586,0.000711467117071,1.0,0.0,0.0,0.0,1.0,0.0,0.0,0.0,1.0,0.161556194723,0.113136643171,9.28418387175,0.1,0.0,0.0,0.0,0.1,0.0,0.0,0.0,0.1
1505402119043529123,16903,1505402119043254621,ardrone_base_link,-0.0213622568444,-0.00758931731079,-0.90550913197,0.423720743137,1.0,0.0,0.0,0.0,1.0,0.0,0.0,0.0,100000.0,-0.000989776104689,-0.00012962333858,-0.000353960786015,1.0,0.0,0.0,0.0,1.0,0.0,0.0,0.0,1.0,0.131563019566,0.11269846689,9.28430361748,0.1,0.0,0.0,0.0,0.1,0.0,0.0,0.0,0.1
1505402119047629653,16904,1505402119047466691,ardrone_base_link,-0.0213622568444,-0.00758931731079,-0.90550913197,0.423720743137,1.0,0.0,0.0,0.0,1.0,0.0,0.0,0.0,100000.0,-0.000742122530937,-0.00063784327358,-0.00175399146974,1.0,0.0,0.0,0.0,1.0,0.0,0.0,0.0,1.0,0.151434568129,0.112670127675,9.28424637318,0.1,0.0,0.0,0.0,0.1,0.0,0.0,0.0,0.1
1505402119052795243,16905,1505402119052613101,ardrone_base_link,-0.0213621901453,-0.00758950505143,-0.90550540809,0.423728701135,1.0,0.0,0.0,0.0,1.0,0.0,0.0,0.0,100000.0,2.94111669064e-05,-0.00105443410575,-0.00132769532502,1.0,0.0,0.0,0.0,1.0,0.0,0.0,0.0,1.0,0.146548230387,0.112819910236,9.28434684277,0.1,0.0,0.0,0.0,0.1,0.0,0.0,0.0,0.1
1505402119058008578,16906,1505402119057839774,ardrone_base_link,-0.0213621901453,-0.00758950505143,-0.90550540809,0.423728701135,1.0,0.0,0.0,0.0,1.0,0.0,0.0,0.0,100000.0,0.00116680562496,-0.000505256466568,-0.000532382167876,1.0,0.0,0.0,0.0,1.0,0.0,0.0,0.0,1.0,0.193672200665,0.113492904976,9.28462897539,0.1,0.0,0.0,0.0,0.1,0.0,0.0,0.0,0.1
1505402119062849496,16907,1505402119062578669,ardrone_base_link,-0.0213700912414,-0.00759320329571,-0.905505237783,0.423728600416,1.0,0.0,0.0,0.0,1.0,0.0,0.0,0.0,100000.0,0.000108741231088,8.43536108732e-05,-0.000377397518605,1.0,0.0,0.0,0.0,1.0,0.0,0.0,0.0,1.0,0.200188212097,0.114068825357,9.28459100723,0.1,0.0,0.0,0.0,0.1,0.0,0.0,0.0,0.1
1505402119067779182,16908,1505402119067554270,ardrone_base_link,-0.0213700255192,-0.0075933882596,-0.905501570259,0.423736437804,1.0,0.0,0.0,0.0,1.0,0.0,0.0,0.0,100000.0,-1.09486281872e-05,0.000519876368344,0.000243842136115,1.0,0.0,0.0,0.0,1.0,0.0,0.0,0.0,1.0,0.194223487377,0.114463639446,9.28465759754,0.1,0.0,0.0,0.0,0.1,0.0,0.0,0.0,0.1
1505402119074627452,16909,1505402119074499495,ardrone_base_link,-0.0213700255192,-0.0075933882596,-0.905501570259,0.423736437804,1.0,0.0,0.0,0.0,1.0,0.0,0.0,0.0,100000.0,-0.00140708684921,0.000229672528803,-0.000992171932012,1.0,0.0,0.0,0.0,1.0,0.0,0.0,0.0,1.0,0.18602267541,0.114581924863,9.2845285058,0.1,0.0,0.0,0.0,0.1,0.0,0.0,0.0,0.1
1505402119077883403,16910,1505402119077610099,ardrone_base_link,-0.0213779284656,-0.0075970874535,-0.905501399844,0.423736337028,1.0,0.0,0.0,0.0,1.0,0.0,0.0,0.0,100000.0,-0.000995729118586,-0.000612833537161,-0.000891062663868,1.0,0.0,0.0,0.0,1.0,0.0,0.0,0.0,1.0,0.174302707985,0.114453015663,9.28449053764,0.1,0.0,0.0,0.0,0.1,0.0,0.0,0.0,0.1
1505402119084439780,16911,1505402119084056278,ardrone_base_link,-0.0213778616982,-0.00759727533187,-0.905497675827,0.423744294958,1.0,0.0,0.0,0.0,1.0,0.0,0.0,0.0,100000.0,-0.000576667487621,-0.000385337509215,-0.00125993648544,1.0,0.0,0.0,0.0,1.0,0.0,0.0,0.0,1.0,0.183422166854,0.114332393743,9.28455712795,0.1,0.0,0.0,0.0,0.1,0.0,0.0,0.0,0.1
1505402119090452203,16912,1505402119090248718,ardrone_base_link,-0.0213857627265,-0.00760097371282,-0.905497505384,0.423744194172,1.0,0.0,0.0,0.0,1.0,0.0,0.0,0.0,100000.0,-0.000329565285938,-0.000531325116754,-0.000228400807828,1.0,0.0,0.0,0.0,1.0,0.0,0.0,0.0,1.0,0.189824036509,0.1142374916,9.28456238508,0.1,0.0,0.0,0.0,0.1,0.0,0.0,0.0,0.1
1505402119095743380,16913,1505402119095411051,ardrone_base_link,-0.0213856969371,-0.00760115881236,-0.905493837724,0.423752031493,1.0,0.0,0.0,0.0,1.0,0.0,0.0,0.0,100000.0,0.000211074948311,3.95970419049e-05,0.000870655057952,1.0,0.0,0.0,0.0,1.0,0.0,0.0,0.0,1.0,0.186790216342,0.114170527086,9.28457640409,0.1,0.0,0.0,0.0,0.1,0.0,0.0,0.0,0.1
1505402119097969379,16914,1505402119097729649,ardrone_base_link,-0.0213856301339,-0.007601346759,-0.90549011357,0.423759989356,1.0,0.0,0.0,0.0,1.0,0.0,0.0,0.0,100000.0,-0.000168316066265,-0.000115304253995,0.00136986281723,1.0,0.0,0.0,0.0,1.0,0.0,0.0,0.0,1.0,0.187938388065,0.114140636288,9.28456238508,0.1,0.0,0.0,0.0,0.1,0.0,0.0,0.0,0.1
1505402119103048522,16915,1505402119102843953,ardrone_base_link,-0.0213934652715,-0.00760523044397,-0.905486275264,0.42376772579,1.0,0.0,0.0,0.0,1.0,0.0,0.0,0.0,100000.0,0.000451356172562,-0.000529712997377,0.00105174514465,1.0,0.0,0.0,0.0,1.0,0.0,0.0,0.0,1.0,0.182949755341,0.114031204022,9.28453317881,0.1,0.0,0.0,0.0,0.1,0.0,0.0,0.0,0.1
1505402119108572476,16916,1505402119108364637,ardrone_base_link,-0.0213897671882,-0.00761313232652,-0.905486208862,0.423767912468,1.0,0.0,0.0,0.0,1.0,0.0,0.0,0.0,100000.0,0.000767104327679,0.000330029055476,0.000117372022942,1.0,0.0,0.0,0.0,1.0,0.0,0.0,0.0,1.0,0.184917601198,0.113875370286,9.28455712795,0.1,0.0,0.0,0.0,0.1,0.0,0.0,0.0,0.1
1505402119113119900,16917,1505402119112915338,ardrone_base_link,-0.0213897002798,-0.00761332030894,-0.905482484567,0.423775870264,1.0,0.0,0.0,0.0,1.0,0.0,0.0,0.0,100000.0,0.00144870206714,0.000211308710277,-0.000218122033402,1.0,0.0,0.0,0.0,1.0,0.0,0.0,0.0,1.0,0.186471137777,0.113652900606,9.28455245495,0.1,0.0,0.0,0.0,0.1,0.0,0.0,0.0,0.1
1505402119121194288,16918,1505402119121022531,ardrone_base_link,-0.0213860021254,-0.00762122215841,-0.905482418094,0.423776056908,1.0,0.0,0.0,0.0,1.0,0.0,0.0,0.0,100000.0,0.00179901346564,0.00106801930815,-0.000475551001728,1.0,0.0,0.0,0.0,1.0,0.0,0.0,0.0,1.0,0.185593379661,0.113377275504,9.28456238508,0.1,0.0,0.0,0.0,0.1,0.0,0.0,0.0,0.1
1505402119127337563,16919,1505402119127132265,ardrone_base_link,-0.0213939049071,-0.00762492169276,-0.905482247412,0.423775956166,1.0,0.0,0.0,0.0,1.0,0.0,0.0,0.0,100000.0,0.00142372399569,-0.000144894234836,-7.99324479885e-05,1.0,0.0,0.0,0.0,1.0,0.0,0.0,0.0,1.0,0.186640296876,0.113083432987,9.28455712795,0.1,0.0,0.0,0.0,0.1,0.0,0.0,0.0,0.1
1505402119128430513,16920,1505402119128119929,ardrone_base_link,-0.0213938378951,-0.00762510971154,-0.905478523047,0.423783913927,1.0,0.0,0.0,0.0,1.0,0.0,0.0,0.0,100000.0,0.000657588243484,-0.00104948040098,-0.000299279228784,1.0,0.0,0.0,0.0,1.0,0.0,0.0,0.0,1.0,0.185081211105,0.112767968699,9.28455245495,0.1,0.0,0.0,0.0,0.1,0.0,0.0,0.0,0.1
1505402119133292466,16921,1505402119133084452,ardrone_base_link,-0.0214017387587,-0.00762880843285,-0.905478352337,0.423783813175,1.0,0.0,0.0,0.0,1.0,0.0,0.0,0.0,100000.0,-0.000554170459509,-0.00108835753053,-8.3455699496e-05,1.0,0.0,0.0,0.0,1.0,0.0,0.0,0.0,1.0,0.185637499392,0.112506435625,9.28455245495,0.1,0.0,0.0,0.0,0.1,0.0,0.0,0.0,0.1
1505402119138680183,16922,1505402119138543945,ardrone_base_link,-0.0214095735584,-0.00763269245978,-0.905474513557,0.423791549544,1.0,0.0,0.0,0.0,1.0,0.0,0.0,0.0,100000.0,-0.000904075801373,-0.00141736399382,-2.15248437598e-05,1.0,0.0,0.0,0.0,1.0,0.0,0.0,0.0,1.0,0.186126668006,0.112386060134,9.28455712795,0.1,0.0,0.0,0.0,0.1,0.0,0.0,0.0,0.1
1505402119143209810,16923,1505402119142977259,ardrone_base_link,-0.0214095735584,-0.00763269245978,-0.905474513557,0.423791549544,1.0,0.0,0.0,0.0,1.0,0.0,0.0,0.0,100000.0,-0.00125360861421,0.000453351996839,-0.000141819997225,1.0,0.0,0.0,0.0,1.0,0.0,0.0,0.0,1.0,0.185675850883,0.112510615773,9.28455245495,0.1,0.0,0.0,0.0,0.1,0.0,0.0,0.0,0.1
1505402119148188734,16924,1505402119148016526,ardrone_base_link,-0.0214095064781,-0.00763288061626,-0.905470789055,0.423799507237,1.0,0.0,0.0,0.0,1.0,0.0,0.0,0.0,100000.0,-0.000626944005489,-4.86690587422e-05,-0.000203229370527,1.0,0.0,0.0,0.0,1.0,0.0,0.0,0.0,1.0,0.185950809717,0.112935649231,9.28455712795,0.1,0.0,0.0,0.0,0.1,0.0,0.0,0.0,0.1
1505402119153584754,16925,1505402119153484308,ardrone_base_link,-0.0214211075159,-0.00762867860966,-0.905470684776,0.423799219475,1.0,0.0,0.0,0.0,1.0,0.0,0.0,0.0,100000.0,-0.00087833404541,0.000572754070163,-0.000552570039872,1.0,0.0,0.0,0.0,1.0,0.0,0.0,0.0,1.0,0.185166548193,0.0985815221444,9.2846336484,0.1,0.0,0.0,0.0,0.1,0.0,0.0,0.0,0.1
1505402119158213711,16926,1505402119158068771,ardrone_base_link,-0.0214210414868,-0.00762886401512,-0.90546701664,0.423807056564,1.0,0.0,0.0,0.0,1.0,0.0,0.0,0.0,100000.0,-0.000398725271225,-7.09760934114e-05,-0.000297094346024,1.0,0.0,0.0,0.0,1.0,0.0,0.0,0.0,1.0,0.185149699822,0.0808996045962,9.28471542597,0.1,0.0,0.0,0.0,0.1,0.0,0.0,0.0,0.1
1505402119163665925,16927,1505402119163299588,ardrone_base_link,-0.0214247399116,-0.00762096230005,-0.90546708318,0.423806869613,1.0,0.0,0.0,0.0,1.0,0.0,0.0,0.0,100000.0,-0.000221025198698,-0.000461804680526,0.000345798092894,1.0,0.0,0.0,0.0,1.0,0.0,0.0,0.0,1.0,0.185350182652,0.0623874530196,9.28481122255,0.1,0.0,0.0,0.0,0.1,0.0,0.0,0.0,0.1
1505402119168465873,16928,1505402119168265976,ardrone_base_link,-0.0214362720991,-0.00761694802409,-0.905463254199,0.423814539199,1.0,0.0,0.0,0.0,1.0,0.0,0.0,0.0,100000.0,0.00033857676317,7.24829733372e-05,0.000568296294659,1.0,0.0,0.0,0.0,1.0,0.0,0.0,0.0,1.0,0.185415020585,0.0499548889697,9.28488248587,0.1,0.0,0.0,0.0,0.1,0.0,0.0,0.0,0.1
1505402119176142939,16929,1505402119175948947,ardrone_base_link,-0.0214362061714,-0.0076171335608,-0.90545958593,0.423822376224,1.0,0.0,0.0,0.0,1.0,0.0,0.0,0.0,100000.0,0.0010220259428,-0.000329934991896,0.000729111314286,1.0,0.0,0.0,0.0,1.0,0.0,0.0,0.0,1.0,0.185832195729,0.0752273168415,9.28474404812,0.1,0.0,0.0,0.0,0.1,0.0,0.0,0.0,0.1
1505402119179127901,16930,1505402119178949201,ardrone_base_link,-0.0214399047851,-0.00760923179283,-0.905459652369,0.423822189138,1.0,0.0,0.0,0.0,1.0,0.0,0.0,0.0,100000.0,0.000446870923042,0.000267550349236,0.000217286054976,1.0,0.0,0.0,0.0,1.0,0.0,0.0,0.0,1.0,0.170595737919,0.0819662725553,9.28461962938,0.1,0.0,0.0,0.0,0.1,0.0,0.0,0.0,0.1
1505402119186875426,16931,1505402119186574922,ardrone_base_link,-0.0214361392279,-0.00761732195134,-0.905455861157,0.423830333786,1.0,0.0,0.0,0.0,1.0,0.0,0.0,0.0,100000.0,0.000635251402855,-0.000114171765745,-0.000282691791654,1.0,0.0,0.0,0.0,1.0,0.0,0.0,0.0,1.0,0.151952295005,0.117567892373,9.28429427147,0.1,0.0,0.0,0.0,0.1,0.0,0.0,0.0,0.1
1505402119188517910,16932,1505402119188342961,ardrone_base_link,-0.0214282385654,-0.00761362281384,-0.905456031972,0.423830434851,1.0,0.0,0.0,0.0,1.0,0.0,0.0,0.0,100000.0,-0.000622093677521,-0.000141643919051,-0.000209114630707,1.0,0.0,0.0,0.0,1.0,0.0,0.0,0.0,1.0,0.117350725457,0.114615840651,9.28408340216,0.1,0.0,0.0,0.0,0.1,0.0,0.0,0.0,0.1
1505402119198786635,16933,1505402119198589369,ardrone_base_link,-0.0214202701505,-0.00761010819253,-0.905452534351,0.423838372871,1.0,0.0,0.0,0.0,1.0,0.0,0.0,0.0,100000.0,-0.000112108886242,-9.27038490772e-06,-0.000373479968403,1.0,0.0,0.0,0.0,1.0,0.0,0.0,0.0,1.0,0.100821114145,0.115293371491,9.28395431042,0.1,0.0,0.0,0.0,0.1,0.0,0.0,0.0,0.1
1505402119202270658,16934,1505402119202049609,ardrone_base_link,-0.0214123695168,-0.00760640898549,-0.905452705026,0.423838473872,1.0,0.0,0.0,0.0,1.0,0.0,0.0,0.0,100000.0,-0.000201713293791,-0.000183422118425,4.27570194006e-05,1.0,0.0,0.0,0.0,1.0,0.0,0.0,0.0,1.0,0.0952950403094,0.118994810618,9.28390173912,0.1,0.0,0.0,0.0,0.1,0.0,0.0,0.0,0.1
1505402119203993628,16935,1505402119203780881,ardrone_base_link,-0.0214044020646,-0.00760289788949,-0.905449150718,0.423846532344,1.0,0.0,0.0,0.0,1.0,0.0,0.0,0.0,100000.0,0.000137131661177,5.05028292537e-05,0.000174055414391,1.0,0.0,0.0,0.0,1.0,0.0,0.0,0.0,1.0,0.101971211657,0.10148586724,9.28402615786,0.1,0.0,0.0,0.0,0.1,0.0,0.0,0.0,0.1
1505402119209886964,16936,1505402119209677142,ardrone_base_link,-0.0213964995762,-0.00759919772982,-0.905449321295,0.423846633307,1.0,0.0,0.0,0.0,1.0,0.0,0.0,0.0,100000.0,0.000473417341709,-0.000284758396447,0.000387809006497,1.0,0.0,0.0,0.0,1.0,0.0,0.0,0.0,1.0,0.11489778161,0.120460983925,9.28403083086,0.1,0.0,0.0,0.0,0.1,0.0,0.0,0.0,0.1
1505402119213633345,16937,1505402119213485080,ardrone_base_link,-0.0213885332281,-0.0075956835757,-0.905445823216,0.423854571119,1.0,0.0,0.0,0.0,1.0,0.0,0.0,0.0,100000.0,-0.000361073762178,-0.000562963075936,0.000791916740127,1.0,0.0,0.0,0.0,1.0,0.0,0.0,0.0,1.0,0.108599402569,0.10553918723,9.28405478001,0.1,0.0,0.0,0.0,0.1,0.0,0.0,0.0,0.1
1505402119226878855,16938,1505402119226639352,ardrone_base_link,-0.0213805659298,-0.00759217213066,-0.905442268557,0.423862629437,1.0,0.0,0.0,0.0,1.0,0.0,0.0,0.0,100000.0,-0.000195596367121,-0.000538487918675,0.000659910030663,1.0,0.0,0.0,0.0,1.0,0.0,0.0,0.0,1.0,0.102236076072,0.11482380759,9.30233440399,0.1,0.0,0.0,0.0,0.1,0.0,0.0,0.0,0.1
1505402119232275986,16939,1505402119232033138,ardrone_base_link,-0.0213688988943,-0.00759655816782,-0.905438703983,0.423870753643,1.0,0.0,0.0,0.0,1.0,0.0,0.0,0.0,100000.0,0.000836037157569,0.000334528274834,9.87674575299e-05,1.0,0.0,0.0,0.0,1.0,0.0,0.0,0.0,1.0,0.121129360422,0.111031299643,9.31818757057,0.1,0.0,0.0,0.0,0.1,0.0,0.0,0.0,0.1
1505402119233988906,16940,1505402119233762102,ardrone_base_link,-0.0213609316488,-0.00759304641275,-0.905435149075,0.423878811767,1.0,0.0,0.0,0.0,1.0,0.0,0.0,0.0,100000.0,0.00153260305524,0.000634212046862,0.000201727263629,1.0,0.0,0.0,0.0,1.0,0.0,0.0,0.0,1.0,0.142107041925,0.117301102169,9.31535456181,0.1,0.0,0.0,0.0,0.1,0.0,0.0,0.0,0.1
1505402119242403647,16941,1505402119242153244,ardrone_base_link,-0.0213572325961,-0.00760094784915,-0.905435082778,0.423878998161,1.0,0.0,0.0,0.0,1.0,0.0,0.0,0.0,100000.0,0.00147490948439,0.00161702651531,0.000123640755191,1.0,0.0,0.0,0.0,1.0,0.0,0.0,0.0,1.0,0.175506097823,0.112075706944,9.32327880859,0.1,0.0,0.0,0.0,0.1,0.0,0.0,0.0,0.1
1505402119244209562,16942,1505402119243905283,ardrone_base_link,-0.0213571668069,-0.00760113270175,-0.905431413952,0.423886834942,1.0,0.0,0.0,0.0,1.0,0.0,0.0,0.0,100000.0,0.00135182216763,0.00181438680738,-0.0001252082875,1.0,0.0,0.0,0.0,1.0,0.0,0.0,0.0,1.0,0.193583468348,0.115725834295,9.33038002253,0.1,0.0,0.0,0.0,0.1,0.0,0.0,0.0,0.1
1505402119250067469,16943,1505402119249761131,ardrone_base_link,-0.0213571668069,-0.00760113270175,-0.905431413952,0.423886834942,1.0,0.0,0.0,0.0,1.0,0.0,0.0,0.0,100000.0,0.000189829617739,0.00190155673772,-0.000445852987468,1.0,0.0,0.0,0.0,1.0,0.0,0.0,0.0,1.0,0.19668767564,0.114831802808,9.32197737694,0.1,0.0,0.0,0.0,0.1,0.0,0.0,0.0,0.1
1505402119254139500,16944,1505402119253995443,ardrone_base_link,-0.0213571668069,-0.00760113270175,-0.905431413952,0.423886834942,1.0,0.0,0.0,0.0,1.0,0.0,0.0,0.0,100000.0,0.000254761427641,0.00152762234211,-0.000909339403734,1.0,0.0,0.0,0.0,1.0,0.0,0.0,0.0,1.0,0.191066982597,0.112474199198,9.312335217,0.1,0.0,0.0,0.0,0.1,0.0,0.0,0.0,0.1
1505402119262596039,16945,1505402119262196783,ardrone_base_link,-0.021357100004,-0.00760132039765,-0.905427688612,0.423894792256,1.0,0.0,0.0,0.0,1.0,0.0,0.0,0.0,100000.0,-0.000627160072327,0.000448435544968,-0.000916711520404,1.0,0.0,0.0,0.0,1.0,0.0,0.0,0.0,1.0,0.179120739549,0.114016546123,9.28118847609,0.1,0.0,0.0,0.0,0.1,0.0,0.0,0.0,0.1
1505402119264763227,16946,1505402119264606496,ardrone_base_link,-0.021357100004,-0.00760132039765,-0.905427688612,0.423894792256,1.0,0.0,0.0,0.0,1.0,0.0,0.0,0.0,100000.0,-0.000375736504793,0.000180778108188,-0.000195263652131,1.0,0.0,0.0,0.0,1.0,0.0,0.0,0.0,1.0,0.185233156756,0.111687811092,9.2732642293,0.1,0.0,0.0,0.0,0.1,0.0,0.0,0.0,0.1
1505402119268962744,16947,1505402119268786256,ardrone_base_link,-0.0213650004232,-0.00760502008807,-0.905427518292,0.423894691576,1.0,0.0,0.0,0.0,1.0,0.0,0.0,0.0,100000.0,-0.00109113007784,-0.00049124006182,-0.000280007719994,1.0,0.0,0.0,0.0,1.0,0.0,0.0,0.0,1.0,0.184109116718,0.113108860701,9.27421168089,0.1,0.0,0.0,0.0,0.1,0.0,0.0,0.0,0.1
1505402119274804727,16948,1505402119274567973,ardrone_base_link,-0.0213649335861,-0.00760520785282,-0.905423792884,0.423902648856,1.0,0.0,0.0,0.0,1.0,0.0,0.0,0.0,100000.0,-0.00079532340169,-0.000158634036779,0.000640808371827,1.0,0.0,0.0,0.0,1.0,0.0,0.0,0.0,1.0,0.191428830102,0.113681595773,9.28636149168,0.1,0.0,0.0,0.0,0.1,0.0,0.0,0.0,0.1
1505402119279027860,16949,1505402119278908935,ardrone_base_link,-0.0213648677601,-0.00760539277208,-0.905420123852,0.423910485539,1.0,0.0,0.0,0.0,1.0,0.0,0.0,0.0,100000.0,-0.000149741768837,-8.64369794726e-05,-7.1583839599e-05,1.0,0.0,0.0,0.0,1.0,0.0,0.0,0.0,1.0,0.187474920973,0.11355602704,9.29192178249,0.1,0.0,0.0,0.0,0.1,0.0,0.0,0.0,0.1
1505402119284484434,16950,1505402119284258933,ardrone_base_link,-0.0213727699968,-0.0076090934819,-0.905419953424,0.423910384799,1.0,0.0,0.0,0.0,1.0,0.0,0.0,0.0,100000.0,0.000721376389265,3.44682484865e-05,0.00026061286917,1.0,0.0,0.0,0.0,1.0,0.0,0.0,0.0,1.0,0.184710930288,0.114674618281,9.27254633904,0.1,0.0,0.0,0.0,0.1,0.0,0.0,0.0,0.1
1505402119292949794,16951,1505402119292804646,ardrone_base_link,-0.0213690037263,-0.00761718258621,-0.90541616144,0.423918528509,1.0,0.0,0.0,0.0,1.0,0.0,0.0,0.0,100000.0,0.00164324045181,0.000461414456367,0.000159963557962,1.0,0.0,0.0,0.0,1.0,0.0,0.0,0.0,1.0,0.18511720784,0.113834928721,9.24789799452,0.1,0.0,0.0,0.0,0.1,0.0,0.0,0.0,0.1
1505402119294023042,16952,1505402119293876471,ardrone_base_link,-0.0213690037263,-0.00761718258621,-0.90541616144,0.423918528509,1.0,0.0,0.0,0.0,1.0,0.0,0.0,0.0,100000.0,0.00141125905793,0.000382312573493,-0.00030275050085,1.0,0.0,0.0,0.0,1.0,0.0,0.0,0.0,1.0,0.183400170878,0.113800218888,9.21534935236,0.1,0.0,0.0,0.0,0.1,0.0,0.0,0.0,0.1
1505402119304730463,16953,1505402119304374322,ardrone_base_link,-0.0213652383289,-0.00762526877937,-0.905412425762,0.423926551589,1.0,0.0,0.0,0.0,1.0,0.0,0.0,0.0,100000.0,0.000856589525938,0.000628191977739,0.000634325959254,1.0,0.0,0.0,0.0,1.0,0.0,0.0,0.0,1.0,0.185543728992,0.113576763496,9.21508649588,0.1,0.0,0.0,0.0,0.1,0.0,0.0,0.0,0.1
1505402119316390993,16954,1505402119316049613,ardrone_base_link,-0.0213731386175,-0.00762896874127,-0.905412255243,0.423926450976,1.0,0.0,0.0,0.0,1.0,0.0,0.0,0.0,100000.0,-8.54954123497e-06,9.74964350462e-05,-7.93824438006e-06,1.0,0.0,0.0,0.0,1.0,0.0,0.0,0.0,1.0,0.184827755392,0.112999875657,9.23056173325,0.1,0.0,0.0,0.0,0.1,0.0,0.0,0.0,0.1
1505402119316399309,16955,1505402119316078991,ardrone_base_link,-0.02137307157,-0.00762915657755,-0.905408529556,0.423934408122,1.0,0.0,0.0,0.0,1.0,0.0,0.0,0.0,100000.0,-0.000424146652222,-0.000157081522048,0.000588315306231,1.0,0.0,0.0,0.0,1.0,0.0,0.0,0.0,1.0,0.184463534877,0.113369846158,9.270675385,0.1,0.0,0.0,0.0,0.1,0.0,0.0,0.0,0.1
1505402119316403178,16956,1505402119316093157,ardrone_base_link,-0.0213730055367,-0.00762934156724,-0.905404860249,0.423942244673,1.0,0.0,0.0,0.0,1.0,0.0,0.0,0.0,100000.0,-0.000435370951891,0.000244465656579,-0.000235835555941,1.0,0.0,0.0,0.0,1.0,0.0,0.0,0.0,1.0,0.185257817805,0.112988777272,9.29805626869,0.1,0.0,0.0,0.0,0.1,0.0,0.0,0.0,0.1
1505402119319054909,16957,1505402119318729822,ardrone_base_link,-0.0213809057591,-0.00763304166637,-0.905404689663,0.423942144025,1.0,0.0,0.0,0.0,1.0,0.0,0.0,0.0,100000.0,0.000386547297239,0.000451503321528,-0.000877687591128,1.0,0.0,0.0,0.0,1.0,0.0,0.0,0.0,1.0,0.184970720112,0.0978735985234,9.29762576818,0.1,0.0,0.0,0.0,0.1,0.0,0.0,0.0,0.1
1505402119324339690,16958,1505402119324096771,ardrone_base_link,-0.0213846053629,-0.00762514049521,-0.90540475624,0.423941957424,1.0,0.0,0.0,0.0,1.0,0.0,0.0,0.0,100000.0,0.00072742626071,0.00135258783121,-0.000436611648183,1.0,0.0,0.0,0.0,1.0,0.0,0.0,0.0,1.0,0.18608764112,0.079522912018,9.29299832582,0.1,0.0,0.0,0.0,0.1,0.0,0.0,0.0,0.1
1505402119331292661,16959,1505402119331159731,ardrone_base_link,-0.021384538349,-0.00762532843225,-0.905401030416,0.423949914504,1.0,0.0,0.0,0.0,1.0,0.0,0.0,0.0,100000.0,0.00144468992949,0.000365059822798,-0.000294785364531,1.0,0.0,0.0,0.0,1.0,0.0,0.0,0.0,1.0,0.186139591783,0.06030777907,9.27285767794,0.1,0.0,0.0,0.0,0.1,0.0,0.0,0.0,0.1
1505402119335400673,16960,1505402119335280627,ardrone_base_link,-0.0213881720887,-0.00761761241398,-0.905397427486,0.423957564359,1.0,0.0,0.0,0.0,1.0,0.0,0.0,0.0,100000.0,0.00100788474083,-0.000123787671328,0.00124313042033,1.0,0.0,0.0,0.0,1.0,0.0,0.0,0.0,1.0,0.186076560989,0.0632476052269,9.28267682791,0.1,0.0,0.0,0.0,0.1,0.0,0.0,0.0,0.1
1505402119345205796,16961,1505402119344730098,ardrone_base_link,-0.0213960741269,-0.00762131353559,-0.905397256857,0.423957463513,1.0,0.0,0.0,0.0,1.0,0.0,0.0,0.0,100000.0,0.00105773285031,-0.00115484558046,0.00112974364311,1.0,0.0,0.0,0.0,1.0,0.0,0.0,0.0,1.0,0.186283432692,0.0920708682388,9.28232284784,0.1,0.0,0.0,0.0,0.1,0.0,0.0,0.0,0.1
1505402119345216865,16962,1505402119344784757,ardrone_base_link,-0.0214002074594,-0.00763310295334,-0.905393293662,0.42396550644,1.0,0.0,0.0,0.0,1.0,0.0,0.0,0.0,100000.0,0.000748191028833,-0.00120364129543,0.00111707951874,1.0,0.0,0.0,0.0,1.0,0.0,0.0,0.0,1.0,0.185914959013,0.115130865946,9.28924181461,0.1,0.0,0.0,0.0,0.1,0.0,0.0,0.0,0.1
1505402119349411200,16963,1505402119349235268,ardrone_base_link,-0.0214001413919,-0.0076332881779,-0.905389624087,0.42397334286,1.0,0.0,0.0,0.0,1.0,0.0,0.0,0.0,100000.0,0.00072418153286,-0.000640246085823,0.000825841911137,1.0,0.0,0.0,0.0,1.0,0.0,0.0,0.0,1.0,0.185980928689,0.133296348155,9.28686851263,0.1,0.0,0.0,0.0,0.1,0.0,0.0,0.0,0.1
1505402119357409958,16964,1505402119357230188,ardrone_base_link,-0.0214042744153,-0.00764507770051,-0.905385660549,0.423981385789,1.0,0.0,0.0,0.0,1.0,0.0,0.0,0.0,100000.0,0.000349912792444,-0.000812652520835,0.000347451772541,1.0,0.0,0.0,0.0,1.0,0.0,0.0,0.0,1.0,0.185645695403,0.1201689668,9.28222237825,0.1,0.0,0.0,0.0,0.1,0.0,0.0,0.0,0.1
1505402119359347100,16965,1505402119359201788,ardrone_base_link,-0.0214079082588,-0.00763736198719,-0.90538205752,0.423989035338,1.0,0.0,0.0,0.0,1.0,0.0,0.0,0.0,100000.0,-0.000394620001316,-1.06366351247e-05,0.0013474188745,1.0,0.0,0.0,0.0,1.0,0.0,0.0,0.0,1.0,0.185211270303,0.109365346283,9.28434684277,0.1,0.0,0.0,0.0,0.1,0.0,0.0,0.0,0.1
1505402119364708431,16966,1505402119364441577,ardrone_base_link,-0.0214079082588,-0.00763736198719,-0.90538205752,0.423989035338,1.0,0.0,0.0,0.0,1.0,0.0,0.0,0.0,100000.0,-0.000485070049763,-0.000288378447294,0.000522578600794,1.0,0.0,0.0,0.0,1.0,0.0,0.0,0.0,1.0,0.18494483605,0.107223558798,9.28332754374,0.1,0.0,0.0,0.0,0.1,0.0,0.0,0.0,0.1
1505402119369538665,16967,1505402119369354745,ardrone_base_link,-0.0214078411374,-0.00763755012903,-0.905378331282,0.423996992219,1.0,0.0,0.0,0.0,1.0,0.0,0.0,0.0,100000.0,-0.00048091262579,0.000847587361932,0.00118281319737,1.0,0.0,0.0,0.0,1.0,0.0,0.0,0.0,1.0,0.184617798775,0.108926832303,9.28548588753,0.1,0.0,0.0,0.0,0.1,0.0,0.0,0.0,0.1
1505402119376148195,16968,1505402119376008045,ardrone_base_link,-0.0214119757019,-0.00764934070979,-0.905374367392,0.424005035055,1.0,0.0,0.0,0.0,1.0,0.0,0.0,0.0,100000.0,0.000670917332172,0.000621511600912,-0.000212794635445,1.0,0.0,0.0,0.0,1.0,0.0,0.0,0.0,1.0,0.184702259675,0.119651093893,9.28539476395,0.1,0.0,0.0,0.0,0.1,0.0,0.0,0.0,0.1
1505402119382900907,16969,1505402119382596048,ardrone_base_link,-0.0214119757019,-0.00764934070979,-0.905374367392,0.424005035055,1.0,0.0,0.0,0.0,1.0,0.0,0.0,0.0,100000.0,0.000298015773296,0.000910566188395,-0.000218229368329,1.0,0.0,0.0,0.0,1.0,0.0,0.0,0.0,1.0,0.184949563816,0.114989607967,9.28396891356,0.1,0.0,0.0,0.0,0.1,0.0,0.0,0.0,0.1
1505402119384542839,16970,1505402119384351607,ardrone_base_link,-0.0214119757019,-0.00764934070979,-0.905374367392,0.424005035055,1.0,0.0,0.0,0.0,1.0,0.0,0.0,0.0,100000.0,0.000512678176165,0.000171086750925,-0.000116723007523,1.0,0.0,0.0,0.0,1.0,0.0,0.0,0.0,1.0,0.185344998538,0.114804184623,9.29972161055,0.1,0.0,0.0,0.0,0.1,0.0,0.0,0.0,0.1
1505402119390647807,16971,1505402119390502044,ardrone_base_link,-0.0214119094939,-0.00764952603621,-0.905370697475,0.424012871311,1.0,0.0,0.0,0.0,1.0,0.0,0.0,0.0,100000.0,-0.000590231269598,1.88061985682e-05,-0.00011809089483,1.0,0.0,0.0,0.0,1.0,0.0,0.0,0.0,1.0,0.185889403522,0.113580058329,9.30242961645,0.1,0.0,0.0,0.0,0.1,0.0,0.0,0.0,0.1
1505402119394852656,16972,1505402119394741214,ardrone_base_link,-0.0214197421567,-0.00765341499952,-0.905366800105,0.424020727267,1.0,0.0,0.0,0.0,1.0,0.0,0.0,0.0,100000.0,-0.000487253069878,-4.07109037042e-05,0.000969529617578,1.0,0.0,0.0,0.0,1.0,0.0,0.0,0.0,1.0,0.186275382712,0.113016961329,9.31877111197,0.1,0.0,0.0,0.0,0.1,0.0,0.0,0.0,0.1
1505402119399444557,16973,1505402119399242994,ardrone_base_link,-0.0214197421567,-0.00765341499952,-0.905366800105,0.424020727267,1.0,0.0,0.0,0.0,1.0,0.0,0.0,0.0,100000.0,0.000159703195095,-3.35481017828e-05,0.000267480267212,1.0,0.0,0.0,0.0,1.0,0.0,0.0,0.0,1.0,0.186573962122,0.115847241133,9.30095586777,0.1,0.0,0.0,0.0,0.1,0.0,0.0,0.0,0.1
1505402119408572741,16974,1505402119408325782,ardrone_base_link,-0.0214196759134,-0.00765360039316,-0.905363130052,0.424028563456,1.0,0.0,0.0,0.0,1.0,0.0,0.0,0.0,100000.0,0.000124391168356,0.000526681542397,0.000111671164632,1.0,0.0,0.0,0.0,1.0,0.0,0.0,0.0,1.0,0.186604391411,0.114175464772,9.28981133699,0.1,0.0,0.0,0.0,0.1,0.0,0.0,0.0,0.1
1505402119409930481,16975,1505402119409729529,ardrone_base_link,-0.021415975609,-0.00766150108334,-0.905363063228,0.42402875036,1.0,0.0,0.0,0.0,1.0,0.0,0.0,0.0,100000.0,0.00143493711948,0.000300320796669,-0.000365168205462,1.0,0.0,0.0,0.0,1.0,0.0,0.0,0.0,1.0,0.186419406161,0.114045405574,9.27803536654,0.1,0.0,0.0,0.0,0.1,0.0,0.0,0.0,0.1
1505402119415049143,16976,1505402119414897134,ardrone_base_link,-0.0214159082756,-0.00766168929608,-0.905359336642,0.424036707073,1.0,0.0,0.0,0.0,1.0,0.0,0.0,0.0,100000.0,0.000210534781218,0.000672919675708,-0.00100097421091,1.0,0.0,0.0,0.0,1.0,0.0,0.0,0.0,1.0,0.186146491766,0.113496154174,9.27157026529,0.1,0.0,0.0,0.0,0.1,0.0,0.0,0.0,0.1
1505402119423506206,16977,1505402119422727326,ardrone_base_link,-0.0214159082756,-0.00766168929608,-0.905359336642,0.424036707073,1.0,0.0,0.0,0.0,1.0,0.0,0.0,0.0,100000.0,0.000469107180834,3.88799235225e-05,0.000245534116402,1.0,0.0,0.0,0.0,1.0,0.0,0.0,0.0,1.0,0.170560398325,0.112983063795,9.29062969685,0.1,0.0,0.0,0.0,0.1,0.0,0.0,0.0,0.1
1505402119425267187,16978,1505402119425056396,ardrone_base_link,-0.0214159082756,-0.00766168929608,-0.905359336642,0.424036707073,1.0,0.0,0.0,0.0,1.0,0.0,0.0,0.0,100000.0,-0.000815495848656,-0.000310861505568,-0.000467095058411,1.0,0.0,0.0,0.0,1.0,0.0,0.0,0.0,1.0,0.151642571576,0.113634610176,9.28232284784,0.1,0.0,0.0,0.0,0.1,0.0,0.0,0.0,0.1
1505402119429821992,16979,1505402119429591430,ardrone_base_link,-0.0214195424029,-0.0076539740309,-0.905355733277,0.424044356296,1.0,0.0,0.0,0.0,1.0,0.0,0.0,0.0,100000.0,-0.00161565095186,-0.000239499844611,0.000133431400172,1.0,0.0,0.0,0.0,1.0,0.0,0.0,0.0,1.0,0.116820065677,0.113026900589,9.29218989611,0.1,0.0,0.0,0.0,0.1,0.0,0.0,0.0,0.1
1505402119434771114,16980,1505402119434616347,ardrone_base_link,-0.0214116426084,-0.00765027303842,-0.905355904197,0.424044457125,1.0,0.0,0.0,0.0,1.0,0.0,0.0,0.0,100000.0,-0.000375032454031,-0.000276598148048,-0.000900747952983,1.0,0.0,0.0,0.0,1.0,0.0,0.0,0.0,1.0,0.115582440607,0.112956540845,9.28048986197,0.1,0.0,0.0,0.0,0.1,0.0,0.0,0.0,0.1
1505402119442444902,16981,1505402119442225312,ardrone_base_link,-0.0214037409287,-0.0076465711629,-0.905356075089,0.424044557946,1.0,0.0,0.0,0.0,1.0,0.0,0.0,0.0,100000.0,-0.000943161547184,0.000671401619911,-0.00126648182049,1.0,0.0,0.0,0.0,1.0,0.0,0.0,0.0,1.0,0.113447854295,0.113071038574,9.28170542717,0.1,0.0,0.0,0.0,0.1,0.0,0.0,0.0,0.1
1505402119445133820,16982,1505402119444888060,ardrone_base_link,-0.0213920734469,-0.00765095880262,-0.905352452412,0.424052802059,1.0,0.0,0.0,0.0,1.0,0.0,0.0,0.0,100000.0,0.00122028961778,0.000254021026194,-0.000852939905599,1.0,0.0,0.0,0.0,1.0,0.0,0.0,0.0,1.0,0.136143540218,0.113265305944,9.28548588753,0.1,0.0,0.0,0.0,0.1,0.0,0.0,0.0,0.1
1505402119450225991,16983,1505402119450102298,ardrone_base_link,-0.0213920734469,-0.00765095880262,-0.905352452412,0.424052802059,1.0,0.0,0.0,0.0,1.0,0.0,0.0,0.0,100000.0,-0.00011245533824,0.000368294306099,-0.0018556737341,1.0,0.0,0.0,0.0,1.0,0.0,0.0,0.0,1.0,0.130934728682,0.113895796426,9.28264820576,0.1,0.0,0.0,0.0,0.1,0.0,0.0,0.0,0.1
1505402119454979214,16984,1505402119454738340,ardrone_base_link,-0.0213841736792,-0.00764725774045,-0.905352623156,0.424052902724,1.0,0.0,0.0,0.0,1.0,0.0,0.0,0.0,100000.0,-6.41569495201e-05,-0.000377456657588,-0.00126703234855,1.0,0.0,0.0,0.0,1.0,0.0,0.0,0.0,1.0,0.129091593623,0.114017294534,9.28678264618,0.1,0.0,0.0,0.0,0.1,0.0,0.0,0.0,0.1
1505402119461205032,16985,1505402119460877913,ardrone_base_link,-0.0213841736792,-0.00764725774045,-0.905352623156,0.424052902724,1.0,0.0,0.0,0.0,1.0,0.0,0.0,0.0,100000.0,-4.70019876957e-05,-0.000469600781798,-0.00269571878016,1.0,0.0,0.0,0.0,1.0,0.0,0.0,0.0,1.0,0.13774001915,0.114090930857,9.28348058462,0.1,0.0,0.0,0.0,0.1,0.0,0.0,0.0,0.1
1505402119465134660,16986,1505402119464904881,ardrone_base_link,-0.0213841736792,-0.00764725774045,-0.905352623156,0.424052902724,1.0,0.0,0.0,0.0,1.0,0.0,0.0,0.0,100000.0,-0.000324890017509,-0.000609220936894,-0.00179639738053,1.0,0.0,0.0,0.0,1.0,0.0,0.0,0.0,1.0,0.157955864072,0.114023026265,9.28371014595,0.1,0.0,0.0,0.0,0.1,0.0,0.0,0.0,0.1
1505402119469870890,16987,1505402119469742059,ardrone_base_link,-0.0213920734469,-0.00765095880262,-0.905352452412,0.424052802059,1.0,0.0,0.0,0.0,1.0,0.0,0.0,0.0,100000.0,0.00168617069721,-0.000880164094269,-0.00140920933336,1.0,0.0,0.0,0.0,1.0,0.0,0.0,0.0,1.0,0.197497912496,0.113851987012,9.28516987562,0.1,0.0,0.0,0.0,0.1,0.0,0.0,0.0,0.1
1505402119476559060,16988,1505402119476283299,ardrone_base_link,-0.0213883728759,-0.00765885951735,-0.90535238561,0.424052988725,1.0,0.0,0.0,0.0,1.0,0.0,0.0,0.0,100000.0,0.000611554831266,-0.000852959230542,-0.000303238630295,1.0,0.0,0.0,0.0,1.0,0.0,0.0,0.0,1.0,0.196945567057,0.113688942976,9.28382054567,0.1,0.0,0.0,0.0,0.1,0.0,0.0,0.0,0.1
1505402119481499712,16989,1505402119481261120,ardrone_base_link,-0.0213962063204,-0.00766274576795,-0.905348544433,0.42406072416,1.0,0.0,0.0,0.0,1.0,0.0,0.0,0.0,100000.0,0.0012236610055,-0.00110812112689,0.000647701788694,1.0,0.0,0.0,0.0,1.0,0.0,0.0,0.0,1.0,0.199212850258,0.113431097195,9.28550457954,0.1,0.0,0.0,0.0,0.1,0.0,0.0,0.0,0.1
1505402119488585082,16990,1505402119488362765,ardrone_base_link,-0.021396138976,-0.00766293380695,-0.905344817566,0.424068680746,1.0,0.0,0.0,0.0,1.0,0.0,0.0,0.0,100000.0,-0.000100389122963,-0.000363909639418,0.00107417348772,1.0,0.0,0.0,0.0,1.0,0.0,0.0,0.0,1.0,0.175502483547,0.113104644045,9.28429427147,0.1,0.0,0.0,0.0,0.1,0.0,0.0,0.0,0.1
1505402119491587579,16991,1505402119491418851,ardrone_base_link,-0.0214039742026,-0.0076668211445,-0.905340976145,0.424076416057,1.0,0.0,0.0,0.0,1.0,0.0,0.0,0.0,100000.0,-0.00032490119338,-0.000114790163934,0.00159946759231,1.0,0.0,0.0,0.0,1.0,0.0,0.0,0.0,1.0,0.180285631865,0.112946209125,9.28433749676,0.1,0.0,0.0,0.0,0.1,0.0,0.0,0.0,0.1
1505402119495054664,16992,1505402119494921701,ardrone_base_link,-0.0214039068224,-0.00766700925176,-0.905337249139,0.424084372576,1.0,0.0,0.0,0.0,1.0,0.0,0.0,0.0,100000.0,-0.000437296926975,0.00100090168417,0.00182853662409,1.0,0.0,0.0,0.0,1.0,0.0,0.0,0.0,1.0,0.182439302653,0.112817984447,9.28477734327,0.1,0.0,0.0,0.0,0.1,0.0,0.0,0.0,0.1
1505402119500166105,16993,1505402119499932999,ardrone_base_link,-0.0214038404615,-0.00766719450834,-0.905333578535,0.42409220851,1.0,0.0,0.0,0.0,1.0,0.0,0.0,0.0,100000.0,-0.000773657113314,0.000577385537326,0.00136770354584,1.0,0.0,0.0,0.0,1.0,0.0,0.0,0.0,1.0,0.188564059511,0.112951457128,9.28424170017,0.1,0.0,0.0,0.0,0.1,0.0,0.0,0.0,0.1
1505402119510933712,16994,1505402119510718225,ardrone_base_link,-0.021403773078,-0.00766738261443,-0.905329851391,0.424100164964,1.0,0.0,0.0,0.0,1.0,0.0,0.0,0.0,100000.0,-0.000412415713072,0.000817618332803,0.00143245339859,1.0,0.0,0.0,0.0,1.0,0.0,0.0,0.0,1.0,0.188755634427,0.1132005319,9.28484919071,0.1,0.0,0.0,0.0,0.1,0.0,0.0,0.0,0.1
1505402119510942743,16995,1505402119510752632,ardrone_base_link,-0.021403773078,-0.00766738261443,-0.905329851391,0.424100164964,1.0,0.0,0.0,0.0,1.0,0.0,0.0,0.0,100000.0,-0.000237509608269,-7.70809056121e-05,0.000682503916323,1.0,0.0,0.0,0.0,1.0,0.0,0.0,0.0,1.0,0.184137611091,0.113580706343,9.28449053764,0.1,0.0,0.0,0.0,0.1,0.0,0.0,0.0,0.1
1505402119516499812,16996,1505402119516366275,ardrone_base_link,-0.0214116062518,-0.00767126941056,-0.905326009673,0.424107900131,1.0,0.0,0.0,0.0,1.0,0.0,0.0,0.0,100000.0,0.000708162784576,-0.000545720569789,0.00119985779747,1.0,0.0,0.0,0.0,1.0,0.0,0.0,0.0,1.0,0.185105324537,0.114023847692,9.28448528051,0.1,0.0,0.0,0.0,0.1,0.0,0.0,0.0,0.1
1505402119520241782,16997,1505402119520106328,ardrone_base_link,-0.0214115388325,-0.0076714575849,-0.90532228239,0.424115856519,1.0,0.0,0.0,0.0,1.0,0.0,0.0,0.0,100000.0,0.00110979750752,-0.000715242698789,0.00122449640185,1.0,0.0,0.0,0.0,1.0,0.0,0.0,0.0,1.0,0.185283209011,0.114348256402,9.28465292454,0.1,0.0,0.0,0.0,0.1,0.0,0.0,0.0,0.1
1505402119525515490,16998,1505402119525331348,ardrone_base_link,-0.0214156696929,-0.00768324785503,-0.905318316979,0.424123899039,1.0,0.0,0.0,0.0,1.0,0.0,0.0,0.0,100000.0,0.00151601072866,-0.00110802252311,0.00129747902974,1.0,0.0,0.0,0.0,1.0,0.0,0.0,0.0,1.0,0.186974361911,0.0995002603158,9.28450455666,0.1,0.0,0.0,0.0,0.1,0.0,0.0,0.0,0.1
1505402119530365041,16999,1505402119530206410,ardrone_base_link,-0.0214272038873,-0.00767923457479,-0.905314541937,0.424131447134,1.0,0.0,0.0,0.0,1.0,0.0,0.0,0.0,100000.0,0.000734977424145,-0.00059302803129,0.00190148176625,1.0,0.0,0.0,0.0,1.0,0.0,0.0,0.0,1.0,0.187606057152,0.0809670163319,9.28481589556,0.1,0.0,0.0,0.0,0.1,0.0,0.0,0.0,0.1
1505402119536741514,17000,1505402119536543381,ardrone_base_link,-0.021427136398,-0.00767942288621,-0.905310814448,0.424139403421,1.0,0.0,0.0,0.0,1.0,0.0,0.0,0.0,100000.0,0.000436134636402,-0.00068243779242,0.000662944279611,1.0,0.0,0.0,0.0,1.0,0.0,0.0,0.0,1.0,0.185939802602,0.0614824965596,9.28479194641,0.1,0.0,0.0,0.0,0.1,0.0,0.0,0.0,0.1
1505402119542304268,17001,1505402119542087395,ardrone_base_link,-0.0214386725772,-0.00767541079205,-0.905307039162,0.424146951222,1.0,0.0,0.0,0.0,1.0,0.0,0.0,0.0,100000.0,0.000614013522863,-0.00095278210938,0.000982764177024,1.0,0.0,0.0,0.0,1.0,0.0,0.0,0.0,1.0,0.185759654641,0.0632362467237,9.28477267027,0.1,0.0,0.0,0.0,0.1,0.0,0.0,0.0,0.1
1505402119545448319,17002,1505402119545278103,ardrone_base_link,-0.0214386725772,-0.00767541079205,-0.905307039162,0.424146951222,1.0,0.0,0.0,0.0,1.0,0.0,0.0,0.0,100000.0,0.00106618180871,-0.00117626786232,-0.000941006990615,1.0,0.0,0.0,0.0,1.0,0.0,0.0,0.0,1.0,0.184910938516,0.0914470860735,9.28471542597,0.1,0.0,0.0,0.0,0.1,0.0,0.0,0.0,0.1
1505402119550224712,17003,1505402119550055271,ardrone_base_link,-0.0214428705543,-0.00768701299385,-0.905306800898,0.424147037454,1.0,0.0,0.0,0.0,1.0,0.0,0.0,0.0,100000.0,0.00200829282403,-0.00197430420667,-0.00067188590765,1.0,0.0,0.0,0.0,1.0,0.0,0.0,0.0,1.0,0.184876621142,0.114014437795,9.28448528051,0.1,0.0,0.0,0.0,0.1,0.0,0.0,0.0,0.1
1505402119555373307,17004,1505402119555238681,ardrone_base_link,-0.0214507023322,-0.00769090339517,-0.905302901955,0.4241548928,1.0,0.0,0.0,0.0,1.0,0.0,0.0,0.0,100000.0,0.000966653227806,-0.00153006054461,-0.000204578216653,1.0,0.0,0.0,0.0,1.0,0.0,0.0,0.0,1.0,0.184983242303,0.132229141705,9.28449521065,0.1,0.0,0.0,0.0,0.1,0.0,0.0,0.0,0.1
1505402119560375977,17005,1505402119560156234,ardrone_base_link,-0.0214549020886,-0.0077025065103,-0.905302663346,0.424154979116,1.0,0.0,0.0,0.0,1.0,0.0,0.0,0.0,100000.0,0.000292934477329,-0.00118717644364,0.0006721203099,1.0,0.0,0.0,0.0,1.0,0.0,0.0,0.0,1.0,0.184550496563,0.119451341219,9.28451915979,0.1,0.0,0.0,0.0,0.1,0.0,0.0,0.0,0.1
1505402119565563778,17006,1505402119565407271,ardrone_base_link,-0.0214585369499,-0.00769479195947,-0.905299059315,0.424162627505,1.0,0.0,0.0,0.0,1.0,0.0,0.0,0.0,100000.0,-0.000696316361427,-0.000441380776465,0.00240716664121,1.0,0.0,0.0,0.0,1.0,0.0,0.0,0.0,1.0,0.184727869928,0.108823241293,9.28456705809,0.1,0.0,0.0,0.0,0.1,0.0,0.0,0.0,0.1
1505402119577088306,17007,1505402119576896669,ardrone_base_link,-0.0214584693238,-0.00769498054626,-0.905295331552,0.424170583656,1.0,0.0,0.0,0.0,1.0,0.0,0.0,0.0,100000.0,-0.000625140964985,0.000176169909537,0.00143461674452,1.0,0.0,0.0,0.0,1.0,0.0,0.0,0.0,1.0,0.184643792361,0.106968624517,9.28460035324,0.1,0.0,0.0,0.0,0.1,0.0,0.0,0.0,0.1
1505402119581654810,17008,1505402119581272552,ardrone_base_link,-0.0214584027208,-0.00769516627509,-0.905291660202,0.424178419227,1.0,0.0,0.0,0.0,1.0,0.0,0.0,0.0,100000.0,0.000476393848658,0.000112892128527,0.0012396927923,1.0,0.0,0.0,0.0,1.0,0.0,0.0,0.0,1.0,0.184886715561,0.108839304745,9.28455712795,0.1,0.0,0.0,0.0,0.1,0.0,0.0,0.0,0.1
1505402119582831213,17009,1505402119582493995,ardrone_base_link,-0.0214625325588,-0.00770695723751,-0.905287693627,0.424186461681,1.0,0.0,0.0,0.0,1.0,0.0,0.0,0.0,100000.0,0.000166606158018,-0.000129682943225,-0.00028665130958,1.0,0.0,0.0,0.0,1.0,0.0,0.0,0.0,1.0,0.170058835298,0.11967723351,9.28443796635,0.1,0.0,0.0,0.0,0.1,0.0,0.0,0.0,0.1
1505402119588258680,17010,1505402119588049383,ardrone_base_link,-0.0214625325588,-0.00770695723751,-0.905287693627,0.424186461681,1.0,0.0,0.0,0.0,1.0,0.0,0.0,0.0,100000.0,0.000309444993036,3.75472009182e-05,-0.000859196763486,1.0,0.0,0.0,0.0,1.0,0.0,0.0,0.0,1.0,0.166931390762,0.115175743215,9.2844140172,0.1,0.0,0.0,0.0,0.1,0.0,0.0,0.0,0.1
1505402119590535539,17011,1505402119590368004,ardrone_base_link,-0.0214546333547,-0.00770325501238,-0.90528786511,0.424186562557,1.0,0.0,0.0,0.0,1.0,0.0,0.0,0.0,100000.0,-0.000523794442415,-0.000603532418609,-0.000348548433976,1.0,0.0,0.0,0.0,1.0,0.0,0.0,0.0,1.0,0.136240934022,0.114606166072,9.28420314789,0.1,0.0,0.0,0.0,0.1,0.0,0.0,0.0,0.1
1505402119595608797,17012,1505402119595449169,ardrone_base_link,-0.0214545666801,-0.00770344070801,-0.905284193622,0.424194398063,1.0,0.0,0.0,0.0,1.0,0.0,0.0,0.0,100000.0,-7.99261033535e-05,-8.4257684648e-05,5.05077623529e-05,1.0,0.0,0.0,0.0,1.0,0.0,0.0,0.0,1.0,0.136099320091,0.113340575993,9.28423177004,0.1,0.0,0.0,0.0,0.1,0.0,0.0,0.0,0.1
1505402119600654035,17013,1505402119600504392,ardrone_base_link,-0.0214465979535,-0.00769992601362,-0.905280637033,0.424202454953,1.0,0.0,0.0,0.0,1.0,0.0,0.0,0.0,100000.0,0.00062735384563,-0.000617599172983,0.00098667817656,1.0,0.0,0.0,0.0,1.0,0.0,0.0,0.0,1.0,0.11250708364,0.112377499044,9.28403083086,0.1,0.0,0.0,0.0,0.1,0.0,0.0,0.0,0.1
1505402119610414694,17014,1505402119610202984,ardrone_base_link,-0.0214386988107,-0.00769622364952,-0.905280808377,0.424202555767,1.0,0.0,0.0,0.0,1.0,0.0,0.0,0.0,100000.0,0.000764336436987,-0.000656630843878,0.000810836150777,1.0,0.0,0.0,0.0,1.0,0.0,0.0,0.0,1.0,0.108420149051,0.115466373041,9.28403083086,0.1,0.0,0.0,0.0,0.1,0.0,0.0,0.0,0.1
1505402119611582937,17015,1505402119611462016,ardrone_base_link,-0.0214270311374,-0.00770060683314,-0.905277240858,0.424210678998,1.0,0.0,0.0,0.0,1.0,0.0,0.0,0.0,100000.0,0.000705160200596,-0.000217422842979,0.00056946487166,1.0,0.0,0.0,0.0,1.0,0.0,0.0,0.0,1.0,0.108915889077,0.113916916214,9.28400688171,0.1,0.0,0.0,0.0,0.1,0.0,0.0,0.0,0.1
1505402119617030986,17016,1505402119616842852,ardrone_base_link,-0.0214190624945,-0.00769709175867,-0.905273683949,0.424218735665,1.0,0.0,0.0,0.0,1.0,0.0,0.0,0.0,100000.0,-0.000183504074812,-0.0004967385903,0.000109016429633,1.0,0.0,0.0,0.0,1.0,0.0,0.0,0.0,1.0,0.0960914224386,0.113740492053,9.2839402914,0.1,0.0,0.0,0.0,0.1,0.0,0.0,0.0,0.1
1505402119620597375,17017,1505402119620400685,ardrone_base_link,-0.0214148654289,-0.0076854892271,-0.90527392222,0.424218649451,1.0,0.0,0.0,0.0,1.0,0.0,0.0,0.0,100000.0,-0.000507541000843,0.000686856918037,0.000529186334461,1.0,0.0,0.0,0.0,1.0,0.0,0.0,0.0,1.0,0.117168971151,0.113189835101,9.28408340216,0.1,0.0,0.0,0.0,0.1,0.0,0.0,0.0,0.1
1505402119629643528,17018,1505402119629511919,ardrone_base_link,-0.0214068988324,-0.00768197485643,-0.90527036503,0.42422670607,1.0,0.0,0.0,0.0,1.0,0.0,0.0,0.0,100000.0,-0.000686254352331,-0.000318881124258,0.000824781833217,1.0,0.0,0.0,0.0,1.0,0.0,0.0,0.0,1.0,0.100139759108,0.112222285941,9.28396424055,0.1,0.0,0.0,0.0,0.1,0.0,0.0,0.0,0.1
1505402119634566221,17019,1505402119634360564,ardrone_base_link,-0.0213989333202,-0.00767845749631,-0.905266864189,0.424234642084,1.0,0.0,0.0,0.0,1.0,0.0,0.0,0.0,100000.0,-0.00024925917387,-0.000195813365281,0.00159334950149,1.0,0.0,0.0,0.0,1.0,0.0,0.0,0.0,1.0,0.114169285819,0.113233817928,9.28406938314,0.1,0.0,0.0,0.0,0.1,0.0,0.0,0.0,0.1
1505402119635806771,17020,1505402119635641785,ardrone_base_link,-0.0213988658377,-0.00767864555927,-0.905263135793,0.424242597952,1.0,0.0,0.0,0.0,1.0,0.0,0.0,0.0,100000.0,0.000406187027693,-0.00133280456066,0.00113535951823,1.0,0.0,0.0,0.0,1.0,0.0,0.0,0.0,1.0,0.119667960517,0.112903987803,9.28409800529,0.1,0.0,0.0,0.0,0.1,0.0,0.0,0.0,0.1
1505402119640955841,17021,1505402119640778749,ardrone_base_link,-0.0213950970804,-0.00768673067546,-0.905259396775,0.424250619968,1.0,0.0,0.0,0.0,1.0,0.0,0.0,0.0,100000.0,0.00179112330079,-0.00111251231283,0.000502452719957,1.0,0.0,0.0,0.0,1.0,0.0,0.0,0.0,1.0,0.138574186899,0.113396077044,9.28423177004,0.1,0.0,0.0,0.0,0.1,0.0,0.0,0.0,0.1
1505402119646320469,17022,1505402119646177309,ardrone_base_link,-0.021391394783,-0.00769463057812,-0.905259329661,0.42425080666,1.0,0.0,0.0,0.0,1.0,0.0,0.0,0.0,100000.0,0.00229471921921,-0.000562088564038,-0.000162634067237,1.0,0.0,0.0,0.0,1.0,0.0,0.0,0.0,1.0,0.178535464033,0.113794122078,9.28450922966,0.1,0.0,0.0,0.0,0.1,0.0,0.0,0.0,0.1
1505402119653291029,17023,1505402119653148768,ardrone_base_link,-0.0213955914438,-0.00770623325611,-0.905259091387,0.424250892865,1.0,0.0,0.0,0.0,1.0,0.0,0.0,0.0,100000.0,0.00267950841226,-0.000170459039509,-0.00093165691942,1.0,0.0,0.0,0.0,1.0,0.0,0.0,0.0,1.0,0.18939297013,0.11389944721,9.29955396652,0.1,0.0,0.0,0.0,0.1,0.0,0.0,0.0,0.1
1505402119656032647,17024,1505402119655894500,ardrone_base_link,-0.0213955237172,-0.00770642128971,-0.905255362848,0.424258848665,1.0,0.0,0.0,0.0,1.0,0.0,0.0,0.0,100000.0,0.00142919272184,0.000412586145103,-0.000432944274507,1.0,0.0,0.0,0.0,1.0,0.0,0.0,0.0,1.0,0.184664291516,0.114118622057,9.30292729139,0.1,0.0,0.0,0.0,0.1,0.0,0.0,0.0,0.1
1505402119661467845,17025,1505402119660831636,ardrone_base_link,-0.0213955237172,-0.00770642128971,-0.905255362848,0.424258848665,1.0,0.0,0.0,0.0,1.0,0.0,0.0,0.0,100000.0,0.000153228640556,2.48868018389e-05,-0.000332946656272,1.0,0.0,0.0,0.0,1.0,0.0,0.0,0.0,1.0,0.171518857032,0.113743996806,9.31850825548,0.1,0.0,0.0,0.0,0.1,0.0,0.0,0.0,0.1
1505402119667537894,17026,1505402119667369613,ardrone_base_link,-0.02138755812,-0.00770290356003,-0.905251861823,0.424266784348,1.0,0.0,0.0,0.0,1.0,0.0,0.0,0.0,100000.0,-0.000290349125862,0.000527612864971,0.000551765668206,1.0,0.0,0.0,0.0,1.0,0.0,0.0,0.0,1.0,0.142130041867,0.112891292199,9.30038634539,0.1,0.0,0.0,0.0,0.1,0.0,0.0,0.0,0.1
1505402119671480327,17027,1505402119671295610,ardrone_base_link,-0.0213874904226,-0.00770309152302,-0.905248133144,0.424274740084,1.0,0.0,0.0,0.0,1.0,0.0,0.0,0.0,100000.0,-0.000113267458801,0.000397507101297,0.000699331401847,1.0,0.0,0.0,0.0,1.0,0.0,0.0,0.0,1.0,0.168841371685,0.112525200658,9.28988318443,0.1,0.0,0.0,0.0,0.1,0.0,0.0,0.0,0.1
1505402119678941497,17028,1505402119678769602,ardrone_base_link,-0.0213837879148,-0.00771099132739,-0.905248065887,0.424274926709,1.0,0.0,0.0,0.0,1.0,0.0,0.0,0.0,100000.0,0.0016397126019,0.000512112863362,0.000899003061932,1.0,0.0,0.0,0.0,1.0,0.0,0.0,0.0,1.0,0.175582380965,0.112247521989,9.27782449722,0.1,0.0,0.0,0.0,0.1,0.0,0.0,0.0,0.1
1505402119681798922,17029,1505402119681543606,ardrone_base_link,-0.0213916200047,-0.00771487945982,-0.905244222514,0.42428266148,1.0,0.0,0.0,0.0,1.0,0.0,0.0,0.0,100000.0,0.00200939178467,-0.000234693303355,0.00121634057723,1.0,0.0,0.0,0.0,1.0,0.0,0.0,0.0,1.0,0.198426781595,0.112736900523,9.2718290329,0.1,0.0,0.0,0.0,0.1,0.0,0.0,0.0,0.1
1505402119686351046,17030,1505402119686132580,ardrone_base_link,-0.0213957483539,-0.00772667031354,-0.905240255115,0.424290703454,1.0,0.0,0.0,0.0,1.0,0.0,0.0,0.0,100000.0,0.00180608406663,-0.0012015979737,0.00195100018755,1.0,0.0,0.0,0.0,1.0,0.0,0.0,0.0,1.0,0.200267123803,0.113524703309,9.29080668688,0.1,0.0,0.0,0.0,0.1,0.0,0.0,0.0,0.1
1505402119691733177,17031,1505402119691593320,ardrone_base_link,-0.0213956814766,-0.0077268554995,-0.905236582725,0.424298538548,1.0,0.0,0.0,0.0,1.0,0.0,0.0,0.0,100000.0,0.000385589897633,-0.00106409005821,0.00246335542761,1.0,0.0,0.0,0.0,1.0,0.0,0.0,0.0,1.0,0.178490340337,0.113750814646,9.28240871429,0.1,0.0,0.0,0.0,0.1,0.0,0.0,0.0,0.1
1505402119696548975,17032,1505402119696317411,ardrone_base_link,-0.0214034453881,-0.00773093204157,-0.905229009955,0.424314228787,1.0,0.0,0.0,0.0,1.0,0.0,0.0,0.0,100000.0,-0.000935927033424,-0.00096046552062,0.00243830028921,1.0,0.0,0.0,0.0,1.0,0.0,0.0,0.0,1.0,0.18886738494,0.114184254035,9.29275883436,0.1,0.0,0.0,0.0,0.1,0.0,0.0,0.0,0.1
1505402119701238536,17033,1505402119700989826,ardrone_base_link,-0.0214070803646,-0.00772322053866,-0.905225348292,0.424321997526,1.0,0.0,0.0,0.0,1.0,0.0,0.0,0.0,100000.0,-0.000816605985165,0.000113287009299,0.00151512399316,1.0,0.0,0.0,0.0,1.0,0.0,0.0,0.0,1.0,0.175641760975,0.114125741087,9.29580271244,0.1,0.0,0.0,0.0,0.1,0.0,0.0,0.0,0.1
1505402119713912995,17034,1505402119713481492,ardrone_base_link,-0.0214070803646,-0.00772322053866,-0.905225348292,0.424321997526,1.0,0.0,0.0,0.0,1.0,0.0,0.0,0.0,100000.0,-0.000355910509825,0.000270096585155,0.000655421987176,1.0,0.0,0.0,0.0,1.0,0.0,0.0,0.0,1.0,0.190683832765,0.114295420423,9.30067373514,0.1,0.0,0.0,0.0,0.1,0.0,0.0,0.0,0.1
1505402119714242849,17035,1505402119714060771,ardrone_base_link,-0.0214112110456,-0.00773500973931,-0.905221436803,0.424329918835,1.0,0.0,0.0,0.0,1.0,0.0,0.0,0.0,100000.0,0.000609148293734,0.000347198918462,0.000610468909144,1.0,0.0,0.0,0.0,1.0,0.0,0.0,0.0,1.0,0.187830653414,0.114670629799,9.31988620758,0.1,0.0,0.0,0.0,0.1,0.0,0.0,0.0,0.1
1505402119716875267,17036,1505402119716775501,ardrone_base_link,-0.0214111430661,-0.00773519791017,-0.905217707569,0.424337874304,1.0,0.0,0.0,0.0,1.0,0.0,0.0,0.0,100000.0,0.000871494412422,0.000788274221122,0.000387551292079,1.0,0.0,0.0,0.0,1.0,0.0,0.0,0.0,1.0,0.183267683908,0.114527473412,9.29911353588,0.1,0.0,0.0,0.0,0.1,0.0,0.0,0.0,0.1
1505402119721203701,17037,1505402119721053225,ardrone_base_link,-0.0214111430661,-0.00773519791017,-0.905217707569,0.424337874304,1.0,0.0,0.0,0.0,1.0,0.0,0.0,0.0,100000.0,0.000430684536695,0.000762889161706,0.00111290626228,1.0,0.0,0.0,0.0,1.0,0.0,0.0,0.0,1.0,0.187047687918,0.114645412005,9.29265369177,0.1,0.0,0.0,0.0,0.1,0.0,0.0,0.0,0.1
1505402119726358140,17038,1505402119726229307,ardrone_base_link,-0.0214110750849,-0.00773538608044,-0.905213978266,0.42434582974,1.0,0.0,0.0,0.0,1.0,0.0,0.0,0.0,100000.0,-0.000103112310171,0.00121600180864,0.000277868937701,1.0,0.0,0.0,0.0,1.0,0.0,0.0,0.0,1.0,0.181863190606,0.114390149154,9.27709726095,0.1,0.0,0.0,0.0,0.1,0.0,0.0,0.0,0.1
1505402119731470212,17039,1505402119731281449,ardrone_base_link,-0.0214110081321,-0.00773557139906,-0.905210305399,0.424353664607,1.0,0.0,0.0,0.0,1.0,0.0,0.0,0.0,100000.0,-0.00089194253087,0.000496543012559,0.000601581996307,1.0,0.0,0.0,0.0,1.0,0.0,0.0,0.0,1.0,0.18687164709,0.11417736318,9.27111114264,0.1,0.0,0.0,0.0,0.1,0.0,0.0,0.0,0.1
1505402119736328566,17040,1505402119736143112,ardrone_base_link,-0.0214110081321,-0.00773557139906,-0.905210305399,0.424353664607,1.0,0.0,0.0,0.0,1.0,0.0,0.0,0.0,100000.0,-0.00109973177314,0.000150546431541,-0.000346639892086,1.0,0.0,0.0,0.0,1.0,0.0,0.0,0.0,1.0,0.186843371764,0.114234233275,9.29125179052,0.1,0.0,0.0,0.0,0.1,0.0,0.0,0.0,0.1
1505402119742702129,17041,1505402119742413657,ardrone_base_link,-0.02141883865,-0.00773946330425,-0.905206404538,0.424361519511,1.0,0.0,0.0,0.0,1.0,0.0,0.0,0.0,100000.0,-0.000708870589733,-0.000289089977741,-0.000436776783317,1.0,0.0,0.0,0.0,1.0,0.0,0.0,0.0,1.0,0.185760001466,0.113835010864,9.28163825274,0.1,0.0,0.0,0.0,0.1,0.0,0.0,0.0,0.1
1505402119746353183,17042,1505402119746174644,ardrone_base_link,-0.02141883865,-0.00773946330425,-0.905206404538,0.424361519511,1.0,0.0,0.0,0.0,1.0,0.0,0.0,0.0,100000.0,0.000257194042206,-0.000526470132172,-0.000379341741791,1.0,0.0,0.0,0.0,1.0,0.0,0.0,0.0,1.0,0.187668394297,0.113947701454,9.29361107349,0.1,0.0,0.0,0.0,0.1,0.0,0.0,0.0,0.1
1505402119763490487,17043,1505402119763287924,ardrone_base_link,-0.02141883865,-0.00773946330425,-0.905206404538,0.424361519511,1.0,0.0,0.0,0.0,1.0,0.0,0.0,0.0,100000.0,0.00112030282617,-0.000276938080788,-0.000170492159668,1.0,0.0,0.0,0.0,1.0,0.0,0.0,0.0,1.0,0.185393809527,0.113765426911,9.28069547415,0.1,0.0,0.0,0.0,0.1,0.0,0.0,0.0,0.1
1505402119765015415,17044,1505402119764746675,ardrone_base_link,-0.0214229668532,-0.0077512517829,-0.905202492441,0.424369440777,1.0,0.0,0.0,0.0,1.0,0.0,0.0,0.0,100000.0,0.00126867741346,-0.000469258055091,0.00109148293268,1.0,0.0,0.0,0.0,1.0,0.0,0.0,0.0,1.0,0.186558355018,0.113895887695,9.28207868338,0.1,0.0,0.0,0.0,0.1,0.0,0.0,0.0,0.1
1505402119765024677,17045,1505402119764769731,ardrone_base_link,-0.021422898731,-0.00775144005708,-0.90519876286,0.424377396079,1.0,0.0,0.0,0.0,1.0,0.0,0.0,0.0,100000.0,0.000381167978048,0.00018331874162,0.000799437402748,1.0,0.0,0.0,0.0,1.0,0.0,0.0,0.0,1.0,0.18600894846,0.113957029209,9.28606008291,0.1,0.0,0.0,0.0,0.1,0.0,0.0,0.0,0.1
1505402119773573640,17046,1505402119773365355,ardrone_base_link,-0.0214228316393,-0.00775162547803,-0.90519508972,0.424385230815,1.0,0.0,0.0,0.0,1.0,0.0,0.0,0.0,100000.0,-0.000271130353212,0.000399717129767,0.000924991210923,1.0,0.0,0.0,0.0,1.0,0.0,0.0,0.0,1.0,0.18504130803,0.113723196462,9.28264820576,0.1,0.0,0.0,0.0,0.1,0.0,0.0,0.0,0.1
1505402119782392367,17047,1505402119782108253,ardrone_base_link,-0.0214228316393,-0.00775162547803,-0.90519508972,0.424385230815,1.0,0.0,0.0,0.0,1.0,0.0,0.0,0.0,100000.0,-0.000747088342905,0.00106177758425,-0.000254657585174,1.0,0.0,0.0,0.0,1.0,0.0,0.0,0.0,1.0,0.185462809354,0.113510291837,9.28747600317,0.1,0.0,0.0,0.0,0.1,0.0,0.0,0.0,0.1
1505402119782402304,17048,1505402119782163754,ardrone_base_link,-0.0214264669984,-0.00774391455922,-0.905191427613,0.424392999089,1.0,0.0,0.0,0.0,1.0,0.0,0.0,0.0,100000.0,-0.000352628529072,0.00101314950734,-0.000593886245042,1.0,0.0,0.0,0.0,1.0,0.0,0.0,0.0,1.0,0.184494584799,0.113172813319,9.28372474909,0.1,0.0,0.0,0.0,0.1,0.0,0.0,0.0,0.1
1505402119782552312,17049,1505402119782210347,ardrone_base_link,-0.0214227635137,-0.00775181375103,-0.905191360001,0.424393186052,1.0,0.0,0.0,0.0,1.0,0.0,0.0,0.0,100000.0,1.13882124424e-05,0.000730813480914,-0.00118693197146,1.0,0.0,0.0,0.0,1.0,0.0,0.0,0.0,1.0,0.185073745251,0.113083743304,9.28386318684,0.1,0.0,0.0,0.0,0.1,0.0,0.0,0.0,0.1
1505402119786676068,17050,1505402119786516499,ardrone_base_link,-0.0214306637677,-0.00775551864318,-0.905191188374,0.424393085559,1.0,0.0,0.0,0.0,1.0,0.0,0.0,0.0,100000.0,0.000113487243652,0.000698591582477,-0.0012010417413,1.0,0.0,0.0,0.0,1.0,0.0,0.0,0.0,1.0,0.185358323902,0.113221250102,9.28518915176,0.1,0.0,0.0,0.0,0.1,0.0,0.0,0.0,0.1
1505402119792071412,17051,1505402119791921970,ardrone_base_link,-0.0214306637677,-0.00775551864318,-0.905191188374,0.424393085559,1.0,0.0,0.0,0.0,1.0,0.0,0.0,0.0,100000.0,0.000417336821556,0.000224942341447,-0.00137383211404,1.0,0.0,0.0,0.0,1.0,0.0,0.0,0.0,1.0,0.185564045608,0.113446403109,9.28360033035,0.1,0.0,0.0,0.0,0.1,0.0,0.0,0.0,0.1
1505402119796804684,17052,1505402119796603807,ardrone_base_link,-0.0214306637677,-0.00775551864318,-0.905191188374,0.424393085559,1.0,0.0,0.0,0.0,1.0,0.0,0.0,0.0,100000.0,0.000354528427124,0.00103412102908,-0.000552159268409,1.0,0.0,0.0,0.0,1.0,0.0,0.0,0.0,1.0,0.186264594644,0.11374308411,9.28550983667,0.1,0.0,0.0,0.0,0.1,0.0,0.0,0.0,0.1
1505402119801679971,17053,1505402119801491288,ardrone_base_link,-0.0214305966407,-0.00775570413135,-0.905187515098,0.424400920229,1.0,0.0,0.0,0.0,1.0,0.0,0.0,0.0,100000.0,0.000902019441128,0.000384364277124,2.68863514066e-05,1.0,0.0,0.0,0.0,1.0,0.0,0.0,0.0,1.0,0.186192984506,0.114141238667,9.29931973219,0.1,0.0,0.0,0.0,0.1,0.0,0.0,0.0,0.1
1505402119807305350,17054,1505402119807084683,ardrone_base_link,-0.0214268248009,-0.0077637917154,-0.905183717523,0.424409062401,1.0,0.0,0.0,0.0,1.0,0.0,0.0,0.0,100000.0,0.000637263059616,0.000760544149671,0.0010380896274,1.0,0.0,0.0,0.0,1.0,0.0,0.0,0.0,1.0,0.186421578377,0.11423583962,9.30271700621,0.1,0.0,0.0,0.0,0.1,0.0,0.0,0.0,0.1
1505402119813174920,17055,1505402119813019962,ardrone_base_link,-0.0214346558756,-0.00776768138337,-0.905179872425,0.42441679657,1.0,0.0,0.0,0.0,1.0,0.0,0.0,0.0,100000.0,0.000536061823368,-0.000509242527187,0.00109034194611,1.0,0.0,0.0,0.0,1.0,0.0,0.0,0.0,1.0,0.186330272257,0.114406376891,9.3189002037,0.1,0.0,0.0,0.0,0.1,0.0,0.0,0.0,0.1
1505402119817317952,17056,1505402119817118772,ardrone_base_link,-0.021434587609,-0.00776786976028,-0.905176142428,0.424424751673,1.0,0.0,0.0,0.0,1.0,0.0,0.0,0.0,100000.0,-4.81680035591e-06,-0.000538416206837,0.00146707496606,1.0,0.0,0.0,0.0,1.0,0.0,0.0,0.0,1.0,0.186078952253,0.113909861073,9.30027652979,0.1,0.0,0.0,0.0,0.1,0.0,0.0,0.0,0.1
1505402119821891885,17057,1505402119821650008,ardrone_base_link,-0.021434587609,-0.00776786976028,-0.905176142428,0.424424751673,1.0,0.0,0.0,0.0,1.0,0.0,0.0,0.0,100000.0,0.000448729842901,-0.000330380164087,0.00138650694862,1.0,0.0,0.0,0.0,1.0,0.0,0.0,0.0,1.0,0.185957490653,0.113536212407,9.29031368494,0.1,0.0,0.0,0.0,0.1,0.0,0.0,0.0,0.1
1505402119826866479,17058,1505402119826651687,ardrone_base_link,-0.0214424185821,-0.00777175963263,-0.905172297126,0.424432485741,1.0,0.0,0.0,0.0,1.0,0.0,0.0,0.0,100000.0,0.000750597566366,0.00019331369549,0.0014321282506,1.0,0.0,0.0,0.0,1.0,0.0,0.0,0.0,1.0,0.185567459092,0.0981763489544,9.27790569067,0.1,0.0,0.0,0.0,0.1,0.0,0.0,0.0,0.1
1505402119831784784,17059,1505402119831605862,ardrone_base_link,-0.0214344521052,-0.00776824365812,-0.905168738742,0.424440541251,1.0,0.0,0.0,0.0,1.0,0.0,0.0,0.0,100000.0,0.00129961594939,0.00148330722004,0.00125110941008,1.0,0.0,0.0,0.0,1.0,0.0,0.0,0.0,1.0,0.185326032713,0.0796282006428,9.2718290329,0.1,0.0,0.0,0.0,0.1,0.0,0.0,0.0,0.1
1505402119838468818,17060,1505402119838273871,ardrone_base_link,-0.0214459859972,-0.00776423744423,-0.905164904577,0.424448208646,1.0,0.0,0.0,0.0,1.0,0.0,0.0,0.0,100000.0,0.000831499695778,0.000726830214262,0.000607050023973,1.0,0.0,0.0,0.0,1.0,0.0,0.0,0.0,1.0,0.185125476867,0.0458702908829,9.29117994308,0.1,0.0,0.0,0.0,0.1,0.0,0.0,0.0,0.1
1505402119843988964,17061,1505402119843761203,ardrone_base_link,-0.0214496228279,-0.00775652413613,-0.905161298546,0.424455855924,1.0,0.0,0.0,0.0,1.0,0.0,0.0,0.0,100000.0,-7.39768147469e-05,0.000904669985175,0.000548213720322,1.0,0.0,0.0,0.0,1.0,0.0,0.0,0.0,1.0,0.200283296779,0.044702464249,9.28274400234,0.1,0.0,0.0,0.0,0.1,0.0,0.0,0.0,0.1
1505402119847168656,17062,1505402119847007394,ardrone_base_link,-0.0214612269034,-0.00775233053357,-0.905161194439,0.424455567984,1.0,0.0,0.0,0.0,1.0,0.0,0.0,0.0,100000.0,-0.00069123506546,-0.000411567278206,-0.000467592850327,1.0,0.0,0.0,0.0,1.0,0.0,0.0,0.0,1.0,0.219205896929,0.0429517807439,9.29343349934,0.1,0.0,0.0,0.0,0.1,0.0,0.0,0.0,0.1
1505402119852190622,17063,1505402119852023679,ardrone_base_link,-0.021476465147,-0.0077404257491,-0.905157427547,0.424463047403,1.0,0.0,0.0,0.0,1.0,0.0,0.0,0.0,100000.0,-0.00130988284945,-0.00070530641824,-5.24560455233e-05,1.0,0.0,0.0,0.0,1.0,0.0,0.0,0.0,1.0,0.254140764847,0.0653464184143,9.28158568144,0.1,0.0,0.0,0.0,0.1,0.0,0.0,0.0,0.1
1505402119858608496,17064,1505402119858380644,ardrone_base_link,-0.0214922631646,-0.00774783589691,-0.905157083851,0.424462845509,1.0,0.0,0.0,0.0,1.0,0.0,0.0,0.0,100000.0,-0.000268783420324,-0.00107120815665,-0.000355717958882,1.0,0.0,0.0,0.0,1.0,0.0,0.0,0.0,1.0,0.255679789558,0.0603949324228,9.28298290968,0.1,0.0,0.0,0.0,0.1,0.0,0.0,0.0,0.1
1505402119862244620,17065,1505402119861890624,ardrone_base_link,-0.0215154005949,-0.00773963336583,-0.905153201263,0.424470102429,1.0,0.0,0.0,0.0,1.0,0.0,0.0,0.0,100000.0,-0.000303719192743,-0.00118732731789,0.000825394177809,1.0,0.0,0.0,0.0,1.0,0.0,0.0,0.0,1.0,0.24272686094,0.0437811020762,9.28661032915,0.1,0.0,0.0,0.0,0.1,0.0,0.0,0.0,0.1
1505402119867580091,17066,1505402119867376272,ardrone_base_link,-0.0215232305699,-0.00774352722331,-0.905149298795,0.424477956109,1.0,0.0,0.0,0.0,1.0,0.0,0.0,0.0,100000.0,0.000945683568716,-0.000783711671829,0.000907989568077,1.0,0.0,0.0,0.0,1.0,0.0,0.0,0.0,1.0,0.201168356463,0.0491022528149,9.29834307432,0.1,0.0,0.0,0.0,0.1,0.0,0.0,0.0,0.1
1505402119872707463,17067,1505402119872509164,ardrone_base_link,-0.0215268678946,-0.00773581460227,-0.905145692327,0.424485602574,1.0,0.0,0.0,0.0,1.0,0.0,0.0,0.0,100000.0,0.000386189669371,-0.000390259578126,0.00111819989979,1.0,0.0,0.0,0.0,1.0,0.0,0.0,0.0,1.0,0.171412984282,0.0536618864164,9.32078576088,0.1,0.0,0.0,0.0,0.1,0.0,0.0,0.0,0.1
1505402119880183880,17068,1505402119879731908,ardrone_base_link,-0.0215268678946,-0.00773581460227,-0.905145692327,0.424485602574,1.0,0.0,0.0,0.0,1.0,0.0,0.0,0.0,100000.0,0.000975143164396,-0.000261320732534,0.000176385976374,1.0,0.0,0.0,0.0,1.0,0.0,0.0,0.0,1.0,0.171629220247,0.110801701806,9.33611263037,0.1,0.0,0.0,0.0,0.1,0.0,0.0,0.0,0.1
1505402119882045606,17069,1505402119881857758,ardrone_base_link,-0.021526799908,-0.00773600378958,-0.905141961725,0.424493557377,1.0,0.0,0.0,0.0,1.0,0.0,0.0,0.0,100000.0,0.000296358019114,6.68857246637e-05,-0.000420229043812,1.0,0.0,0.0,0.0,1.0,0.0,0.0,0.0,1.0,0.175968177617,0.120850121044,9.334012115,0.1,0.0,0.0,0.0,0.1,0.0,0.0,0.0,0.1
1505402119887727398,17070,1505402119887386518,ardrone_base_link,-0.0215230954906,-0.00774390266742,-0.905141894181,0.424493745219,1.0,0.0,0.0,0.0,1.0,0.0,0.0,0.0,100000.0,0.000136323273182,-0.000357662327588,-0.00066943425918,1.0,0.0,0.0,0.0,1.0,0.0,0.0,0.0,1.0,0.197215779871,0.134633758292,9.30665050745,0.1,0.0,0.0,0.0,0.1,0.0,0.0,0.0,0.1
1505402119892633544,17071,1505402119892449659,ardrone_base_link,-0.0215309953026,-0.00774760845894,-0.905141722071,0.42449364397,1.0,0.0,0.0,0.0,1.0,0.0,0.0,0.0,100000.0,-0.000354882329702,-0.000417441129684,-0.00055361201521,1.0,0.0,0.0,0.0,1.0,0.0,0.0,0.0,1.0,0.187353459373,0.116794218123,9.28251385689,0.1,0.0,0.0,0.0,0.1,0.0,0.0,0.0,0.1
1505402119897216533,17072,1505402119897088122,ardrone_base_link,-0.0215309282441,-0.0077477948155,-0.905138047925,0.424501478211,1.0,0.0,0.0,0.0,1.0,0.0,0.0,0.0,100000.0,-0.000824742019176,-0.000367621891201,0.000160412979312,1.0,0.0,0.0,0.0,1.0,0.0,0.0,0.0,1.0,0.187438413128,0.102039809898,9.26602457762,0.1,0.0,0.0,0.0,0.1,0.0,0.0,0.0,0.1
1505402119905921465,17073,1505402119905745139,ardrone_base_link,-0.0215388261392,-0.00775149979141,-0.905137875787,0.424501376953,1.0,0.0,0.0,0.0,1.0,0.0,0.0,0.0,100000.0,-0.00014603883028,-0.000330338254571,8.24045855552e-06,1.0,0.0,0.0,0.0,1.0,0.0,0.0,0.0,1.0,0.180656478554,0.112506736815,9.2776568532,0.1,0.0,0.0,0.0,0.1,0.0,0.0,0.0,0.1
1505402119910782184,17074,1505402119910579200,ardrone_base_link,-0.0215424625682,-0.00774379027359,-0.905134212659,0.424509143709,1.0,0.0,0.0,0.0,1.0,0.0,0.0,0.0,100000.0,-0.00047442689538,0.000562589615583,0.000344055471942,1.0,0.0,0.0,0.0,1.0,0.0,0.0,0.0,1.0,0.183078810573,0.108455671184,9.28844740391,0.1,0.0,0.0,0.0,0.1,0.0,0.0,0.0,0.1
1505402119913337181,17075,1505402119913065512,ardrone_base_link,-0.0215386909209,-0.00775187550756,-0.905130470765,0.424517165863,1.0,0.0,0.0,0.0,1.0,0.0,0.0,0.0,100000.0,0.00079981982708,0.000573893077672,0.000189115438843,1.0,0.0,0.0,0.0,1.0,0.0,0.0,0.0,1.0,0.188278093562,0.120606851019,9.29087386131,0.1,0.0,0.0,0.0,0.1,0.0,0.0,0.0,0.1
1505402119917920936,17076,1505402119917563289,ardrone_base_link,-0.0215386909209,-0.00775187550756,-0.905130470765,0.424517165863,1.0,0.0,0.0,0.0,1.0,0.0,0.0,0.0,100000.0,0.000131733715534,0.000848726369441,0.000448570062872,1.0,0.0,0.0,0.0,1.0,0.0,0.0,0.0,1.0,0.186343451589,0.114854556322,9.30370768309,0.1,0.0,0.0,0.0,0.1,0.0,0.0,0.0,0.1
1505402119926092920,17077,1505402119925890015,ardrone_base_link,-0.0215386227931,-0.00775206479877,-0.905126739886,0.424525120533,1.0,0.0,0.0,0.0,1.0,0.0,0.0,0.0,100000.0,0.000794947147369,0.000567055307329,0.000870689633302,1.0,0.0,0.0,0.0,1.0,0.0,0.0,0.0,1.0,0.18739975132,0.111969058402,9.29728113413,0.1,0.0,0.0,0.0,0.1,0.0,0.0,0.0,0.1
1505402119927533581,17078,1505402119927383961,ardrone_base_link,-0.021538555696,-0.00775225122135,-0.905123065467,0.424532954645,1.0,0.0,0.0,0.0,1.0,0.0,0.0,0.0,100000.0,0.000144325196743,0.00056579336524,0.000441978452727,1.0,0.0,0.0,0.0,1.0,0.0,0.0,0.0,1.0,0.185333480313,0.115033974126,9.3175129056,0.1,0.0,0.0,0.0,0.1,0.0,0.0,0.0,0.1
1505402119932340558,17079,1505402119932213906,ardrone_base_link,-0.021538555696,-0.00775225122135,-0.905123065467,0.424532954645,1.0,0.0,0.0,0.0,1.0,0.0,0.0,0.0,100000.0,0.000123038887978,0.0010364279151,-0.000389715889469,1.0,0.0,0.0,0.0,1.0,0.0,0.0,0.0,1.0,0.185391509533,0.11195122432,9.30032442808,0.1,0.0,0.0,0.0,0.1,0.0,0.0,0.0,0.1
1505402119937870279,17080,1505402119937747250,ardrone_base_link,-0.021538555696,-0.00775225122135,-0.905123065467,0.424532954645,1.0,0.0,0.0,0.0,1.0,0.0,0.0,0.0,100000.0,-0.000400498509407,0.00098954886198,-0.00123658042867,1.0,0.0,0.0,0.0,1.0,0.0,0.0,0.0,1.0,0.18696709685,0.115730771981,9.29118461609,0.1,0.0,0.0,0.0,0.1,0.0,0.0,0.0,0.1
1505402119943008888,17081,1505402119942769833,ardrone_base_link,-0.021538555696,-0.00775225122135,-0.905123065467,0.424532954645,1.0,0.0,0.0,0.0,1.0,0.0,0.0,0.0,100000.0,-0.000856105238199,0.00107611157,-0.00123493128922,1.0,0.0,0.0,0.0,1.0,0.0,0.0,0.0,1.0,0.186216933653,0.113857764378,9.27963353395,0.1,0.0,0.0,0.0,0.1,0.0,0.0,0.0,0.1
1505402119947504802,17082,1505402119947364635,ardrone_base_link,-0.021538487565,-0.00775244051138,-0.905119334449,0.424540909249,1.0,0.0,0.0,0.0,1.0,0.0,0.0,0.0,100000.0,-0.000746417790651,0.000158340670168,0.00023884116672,1.0,0.0,0.0,0.0,1.0,0.0,0.0,0.0,1.0,0.186827655137,0.112692452222,9.27041720152,0.1,0.0,0.0,0.0,0.1,0.0,0.0,0.0,0.1
1505402119952474247,17083,1505402119952343280,ardrone_base_link,-0.0215384194323,-0.00775262980081,-0.905115603361,0.42454886382,1.0,0.0,0.0,0.0,1.0,0.0,0.0,0.0,100000.0,-0.000231418758631,0.00022697634995,0.000986472936347,1.0,0.0,0.0,0.0,1.0,0.0,0.0,0.0,1.0,0.186090105399,0.114062573388,9.2906057477,0.1,0.0,0.0,0.0,0.1,0.0,0.0,0.0,0.1
1505402119957491536,17084,1505402119957359989,ardrone_base_link,-0.0215462499973,-0.00775652167965,-0.905111756537,0.424556596535,1.0,0.0,0.0,0.0,1.0,0.0,0.0,0.0,100000.0,0.000565003603697,0.000222163274884,0.00102199893445,1.0,0.0,0.0,0.0,1.0,0.0,0.0,0.0,1.0,0.185826537013,0.112716264464,9.28214060068,0.1,0.0,0.0,0.0,0.1,0.0,0.0,0.0,0.1
1505402119965240456,17085,1505402119964916904,ardrone_base_link,-0.0215425450298,-0.0077644202939,-0.905111688814,0.424556784546,1.0,0.0,0.0,0.0,1.0,0.0,0.0,0.0,100000.0,0.0008564889431,0.00078783556819,-0.000606538029388,1.0,0.0,0.0,0.0,1.0,0.0,0.0,0.0,1.0,0.186101897433,0.114496295713,9.2928306818,0.1,0.0,0.0,0.0,0.1,0.0,0.0,0.0,0.1
1505402119967832510,17086,1505402119967554309,ardrone_base_link,-0.0215425450298,-0.0077644202939,-0.905111688814,0.424556784546,1.0,0.0,0.0,0.0,1.0,0.0,0.0,0.0,100000.0,0.000262334942818,0.000942965969443,-0.00178882316686,1.0,0.0,0.0,0.0,1.0,0.0,0.0,0.0,1.0,0.185556232929,0.114295812882,9.29649139643,0.1,0.0,0.0,0.0,0.1,0.0,0.0,0.0,0.1
1505402119972965680,17087,1505402119972784530,ardrone_base_link,-0.0215425450298,-0.0077644202939,-0.905111688814,0.424556784546,1.0,0.0,0.0,0.0,1.0,0.0,0.0,0.0,100000.0,-0.000502243638039,0.000633113086224,-0.00201205024496,1.0,0.0,0.0,0.0,1.0,0.0,0.0,0.0,1.0,0.185612692311,0.114318812825,9.31525409222,0.1,0.0,0.0,0.0,0.1,0.0,0.0,0.0,0.1
1505402119977697445,17088,1505402119977528782,ardrone_base_link,-0.0215425450298,-0.0077644202939,-0.905111688814,0.424556784546,1.0,0.0,0.0,0.0,1.0,0.0,0.0,0.0,100000.0,-0.000635746866465,0.000610783696175,-0.00111790047958,1.0,0.0,0.0,0.0,1.0,0.0,0.0,0.0,1.0,0.185265265405,0.115217499062,9.35329117775,0.1,0.0,0.0,0.0,0.1,0.0,0.0,0.0,0.1
1505402119983458761,17089,1505402119983150724,ardrone_base_link,-0.0215424767918,-0.00776460961898,-0.905107957587,0.42456473905,1.0,0.0,0.0,0.0,1.0,0.0,0.0,0.0,100000.0,-0.000151664018631,0.000222988426685,7.57640227675e-05,1.0,0.0,0.0,0.0,1.0,0.0,0.0,0.0,1.0,0.185167953745,0.11440541856,9.3514062047,0.1,0.0,0.0,0.0,0.1,0.0,0.0,0.0,0.1
1505402119987730027,17090,1505402119987522965,ardrone_base_link,-0.0215424767918,-0.00776460961898,-0.905107957587,0.42456473905,1.0,0.0,0.0,0.0,1.0,0.0,0.0,0.0,100000.0,0.00135136023164,2.60192900896e-05,0.000421081203967,1.0,0.0,0.0,0.0,1.0,0.0,0.0,0.0,1.0,0.185398774594,0.114598472044,9.3427926898,0.1,0.0,0.0,0.0,0.1,0.0,0.0,0.0,0.1
1505402119992795173,17091,1505402119992630142,ardrone_base_link,-0.0215466039648,-0.00777640109968,-0.905104042657,0.424572659754,1.0,0.0,0.0,0.0,1.0,0.0,0.0,0.0,100000.0,0.00136187672615,-0.000703708268702,0.000361846759915,1.0,0.0,0.0,0.0,1.0,0.0,0.0,0.0,1.0,0.185397442058,0.113733966276,9.29888397455,0.1,0.0,0.0,0.0,0.1,0.0,0.0,0.0,0.1
1505402119997753231,17092,1505402119997585956,ardrone_base_link,-0.0215466039648,-0.00777640109968,-0.905104042657,0.424572659754,1.0,0.0,0.0,0.0,1.0,0.0,0.0,0.0,100000.0,0.00178403034806,-0.00103707890958,-0.000629113346804,1.0,0.0,0.0,0.0,1.0,0.0,0.0,0.0,1.0,0.185590605065,0.113172466494,9.2697805047,0.1,0.0,0.0,0.0,0.1,0.0,0.0,0.0,0.1
1505402120010068545,17093,1505402120009854547,ardrone_base_link,-0.0215545015656,-0.00778010669128,-0.905103870256,0.424572558523,1.0,0.0,0.0,0.0,1.0,0.0,0.0,0.0,100000.0,0.000391505658627,-0.0010094512254,-0.000699075579178,1.0,0.0,0.0,0.0,1.0,0.0,0.0,0.0,1.0,0.185503752902,0.113334497437,9.27181910276,0.1,0.0,0.0,0.0,0.1,0.0,0.0,0.0,0.1
1505402120011904005,17094,1505402120011736089,ardrone_base_link,-0.0215507280136,-0.00778819463431,-0.905100070959,0.42458070104,1.0,0.0,0.0,0.0,1.0,0.0,0.0,0.0,100000.0,0.000114090747957,-0.000394124537706,-0.00106627529021,1.0,0.0,0.0,0.0,1.0,0.0,0.0,0.0,1.0,0.18532015495,0.112987015769,9.27494884729,0.1,0.0,0.0,0.0,0.1,0.0,0.0,0.0,0.1
1505402120018001115,17095,1505402120017886488,ardrone_base_link,-0.0215544331898,-0.00778029612144,-0.90510013889,0.424580512958,1.0,0.0,0.0,0.0,1.0,0.0,0.0,0.0,100000.0,-0.000610072165728,-7.35456123948e-05,-0.000195924192667,1.0,0.0,0.0,0.0,1.0,0.0,0.0,0.0,1.0,0.185128123686,0.113306934014,9.2976444602,0.1,0.0,0.0,0.0,0.1,0.0,0.0,0.0,0.1
1505402120018148497,17096,1505402120018061240,ardrone_base_link,-0.0215622633829,-0.00778418840963,-0.905096291524,0.424588245573,1.0,0.0,0.0,0.0,1.0,0.0,0.0,0.0,100000.0,-0.000901658087969,-5.5618584156e-05,0.000220491550863,1.0,0.0,0.0,0.0,1.0,0.0,0.0,0.0,1.0,0.184860922769,0.112979431264,9.28684923649,0.1,0.0,0.0,0.0,0.1,0.0,0.0,0.0,0.1
1505402120022995784,17097,1505402120022714823,ardrone_base_link,-0.0215622633829,-0.00778418840963,-0.905096291524,0.424588245573,1.0,0.0,0.0,0.0,1.0,0.0,0.0,0.0,100000.0,-0.000445414334536,-0.000403618440032,0.000173226580955,1.0,0.0,0.0,0.0,1.0,0.0,0.0,0.0,1.0,0.184793876112,0.113035260886,9.286581707,0.1,0.0,0.0,0.0,0.1,0.0,0.0,0.0,0.1
1505402120028310996,17098,1505402120028167407,ardrone_base_link,-0.0215621949712,-0.00778437790801,-0.90509256002,0.424596199942,1.0,0.0,0.0,0.0,1.0,0.0,0.0,0.0,100000.0,-0.000336378841894,-0.000298424623907,0.000222561415285,1.0,0.0,0.0,0.0,1.0,0.0,0.0,0.0,1.0,0.184848546609,0.113334442675,9.2801312089,0.1,0.0,0.0,0.0,0.1,0.0,0.0,0.0,0.1
1505402120033126438,17099,1505402120032919805,ardrone_base_link,-0.0215700943546,-0.00778808458919,-0.905092387443,0.424596098618,1.0,0.0,0.0,0.0,1.0,0.0,0.0,0.0,100000.0,0.00049639493227,-0.000147902421304,-0.000822807836812,1.0,0.0,0.0,0.0,1.0,0.0,0.0,0.0,1.0,0.18504284136,0.11373936031,9.28160495758,0.1,0.0,0.0,0.0,0.1,0.0,0.0,0.0,0.1
1505402120040338296,17100,1505402120040160003,ardrone_base_link,-0.0215700269457,-0.00778827128416,-0.905088712409,0.424603932432,1.0,0.0,0.0,0.0,1.0,0.0,0.0,0.0,100000.0,0.000346265762346,-3.99649143219e-05,-2.86882859655e-05,1.0,0.0,0.0,0.0,1.0,0.0,0.0,0.0,1.0,0.200596187264,0.114409242757,9.28728499413,0.1,0.0,0.0,0.0,0.1,0.0,0.0,0.0,0.1
1505402120043157910,17101,1505402120042922470,ardrone_base_link,-0.0215742190327,-0.00779987556115,-0.905088471773,0.424604019386,1.0,0.0,0.0,0.0,1.0,0.0,0.0,0.0,100000.0,0.000304691493511,-0.000522593967617,-0.000548455340322,1.0,0.0,0.0,0.0,1.0,0.0,0.0,0.0,1.0,0.219563856348,0.11473271139,9.28505480289,0.1,0.0,0.0,0.0,0.1,0.0,0.0,0.0,0.1
1505402120048591140,17102,1505402120048421891,ardrone_base_link,-0.0215899453481,-0.0078074770293,-0.905084394653,0.424611771055,1.0,0.0,0.0,0.0,1.0,0.0,0.0,0.0,100000.0,-0.000384245067835,-0.000774171261583,0.0005851079477,1.0,0.0,0.0,0.0,1.0,0.0,0.0,0.0,1.0,0.254488794133,0.11493070256,9.28619852066,0.1,0.0,0.0,0.0,0.1,0.0,0.0,0.0,0.1
1505402120053220070,17103,1505402120053101637,ardrone_base_link,-0.0216094475352,-0.0078069914022,-0.905084117021,0.424611379709,1.0,0.0,0.0,0.0,1.0,0.0,0.0,0.0,100000.0,-0.000261794775724,-0.000700352713466,0.000535300001502,1.0,0.0,0.0,0.0,1.0,0.0,0.0,0.0,1.0,0.271091521531,0.0998139265925,9.28445198536,0.1,0.0,0.0,0.0,0.1,0.0,0.0,0.0,0.1
1505402120058717473,17104,1505402120058604437,ardrone_base_link,-0.0216172773564,-0.00781088443792,-0.905080268909,0.424619111953,1.0,0.0,0.0,0.0,1.0,0.0,0.0,0.0,100000.0,-0.000494915992022,-0.000109175220132,0.000879200466443,1.0,0.0,0.0,0.0,1.0,0.0,0.0,0.0,1.0,0.261434521154,0.0810189122334,9.28419380188,0.1,0.0,0.0,0.0,0.1,0.0,0.0,0.0,0.1
1505402120063424458,17105,1505402120062895398,ardrone_base_link,-0.0216288135326,-0.00780688306641,-0.90507643224,0.424626775893,1.0,0.0,0.0,0.0,1.0,0.0,0.0,0.0,100000.0,0.00025200471282,0.00043371040374,0.00100004370324,1.0,0.0,0.0,0.0,1.0,0.0,0.0,0.0,1.0,0.235903891549,0.0615423101,9.28581124544,0.1,0.0,0.0,0.0,0.1,0.0,0.0,0.0,0.1
1505402120070881199,17106,1505402120070723676,ardrone_base_link,-0.0216324516077,-0.00779917199511,-0.905072825037,0.424634420806,1.0,0.0,0.0,0.0,1.0,0.0,0.0,0.0,100000.0,0.000248391181231,0.000395524315536,0.000100299948826,1.0,0.0,0.0,0.0,1.0,0.0,0.0,0.0,1.0,0.188042234629,0.048334063869,9.28473411798,0.1,0.0,0.0,0.0,0.1,0.0,0.0,0.0,0.1
1505402120077104724,17107,1505402120076945920,ardrone_base_link,-0.0216361572527,-0.00779127372001,-0.905072893063,0.424634232011,1.0,0.0,0.0,0.0,1.0,0.0,0.0,0.0,100000.0,0.000626936554909,0.000120688229799,0.000422332901508,1.0,0.0,0.0,0.0,1.0,0.0,0.0,0.0,1.0,0.177768908814,0.0582045027986,9.27023553848,0.1,0.0,0.0,0.0,0.1,0.0,0.0,0.0,0.1
1505402120078405962,17108,1505402120078204707,ardrone_base_link,-0.0216439860693,-0.00779517007844,-0.90506898817,0.424642084399,1.0,0.0,0.0,0.0,1.0,0.0,0.0,0.0,100000.0,0.001280952245,-0.000256952829659,-0.00018110871315,1.0,0.0,0.0,0.0,1.0,0.0,0.0,0.0,1.0,0.170092659816,0.0617940271273,9.26624479294,0.1,0.0,0.0,0.0,0.1,0.0,0.0,0.0,0.1
1505402120084150669,17109,1505402120083894909,ardrone_base_link,-0.0216439185991,-0.00779535741296,-0.905065312739,0.424649918011,1.0,0.0,0.0,0.0,1.0,0.0,0.0,0.0,100000.0,0.00124686211348,-0.00015408731997,0.00122378964443,1.0,0.0,0.0,0.0,1.0,0.0,0.0,0.0,1.0,0.185260975733,0.0820769369602,9.25030984879,0.1,0.0,0.0,0.0,0.1,0.0,0.0,0.0,0.1
1505402120089630741,17110,1505402120089411281,ardrone_base_link,-0.0216439185991,-0.00779535741296,-0.905065312739,0.424649918011,1.0,0.0,0.0,0.0,1.0,0.0,0.0,0.0,100000.0,0.00199377909303,0.000405821949244,0.000935882329941,1.0,0.0,0.0,0.0,1.0,0.0,0.0,0.0,1.0,0.209909867868,0.0982512447983,9.2688762784,0.1,0.0,0.0,0.0,0.1,0.0,0.0,0.0,0.1
1505402120093780158,17111,1505402120093617455,ardrone_base_link,-0.0216480414632,-0.00780715215163,-0.905061339545,0.424657959229,1.0,0.0,0.0,0.0,1.0,0.0,0.0,0.0,100000.0,0.0010823905468,0.000897794030607,0.00113952509128,1.0,0.0,0.0,0.0,1.0,0.0,0.0,0.0,1.0,0.220047019422,0.110401448049,9.27924100161,0.1,0.0,0.0,0.0,0.1,0.0,0.0,0.0,0.1
1505402120099666158,17112,1505402120099560439,ardrone_base_link,-0.0216558719236,-0.00781104970271,-0.905057434235,0.424665811492,1.0,0.0,0.0,0.0,1.0,0.0,0.0,0.0,100000.0,0.00114439800382,0.000995814800262,0.000211831647903,1.0,0.0,0.0,0.0,1.0,0.0,0.0,0.0,1.0,0.258116615191,0.126839588955,9.29178276062,0.1,0.0,0.0,0.0,0.1,0.0,0.0,0.0,0.1
1505402120103919531,17113,1505402120103235389,ardrone_base_link,-0.0216600631932,-0.0078226542559,-0.905057192782,0.424665898721,1.0,0.0,0.0,0.0,1.0,0.0,0.0,0.0,100000.0,0.00101971998811,0.00042191427201,-0.000270095421001,1.0,0.0,0.0,0.0,1.0,0.0,0.0,0.0,1.0,0.264659003541,0.115521025285,9.29792717695,0.1,0.0,0.0,0.0,0.1,0.0,0.0,0.0,0.1
1505402120109302107,17114,1505402120109025625,ardrone_base_link,-0.0216757916794,-0.00783025557424,-0.905053170391,0.42467352863,1.0,0.0,0.0,0.0,1.0,0.0,0.0,0.0,100000.0,0.00115133449435,-0.000396688468754,-5.19854947925e-05,1.0,0.0,0.0,0.0,1.0,0.0,0.0,0.0,1.0,0.276673297212,0.114904544689,9.27889636755,0.1,0.0,0.0,0.0,0.1,0.0,0.0,0.0,0.1
1505402120113230329,17115,1505402120113125779,ardrone_base_link,-0.0216915859841,-0.00783766853276,-0.905052823402,0.424673324923,1.0,0.0,0.0,0.0,1.0,0.0,0.0,0.0,100000.0,0.00131536647677,-0.000807452015579,-0.000312602729537,1.0,0.0,0.0,0.0,1.0,0.0,0.0,0.0,1.0,0.256259187311,0.108028392494,9.28725111485,0.1,0.0,0.0,0.0,0.1,0.0,0.0,0.0,0.1
1505402120119560908,17116,1505402120119256421,ardrone_base_link,-0.0216994142197,-0.00784156571545,-0.905048917554,0.424681177007,1.0,0.0,0.0,0.0,1.0,0.0,0.0,0.0,100000.0,5.98132610321e-05,-0.000904187618289,-0.000163526114193,1.0,0.0,0.0,0.0,1.0,0.0,0.0,0.0,1.0,0.22257219404,0.108696130104,9.27657096386,0.1,0.0,0.0,0.0,0.1,0.0,0.0,0.0,0.1
1505402120123409109,17117,1505402120123186764,ardrone_base_link,-0.0216994142197,-0.00784156571545,-0.905048917554,0.424681177007,1.0,0.0,0.0,0.0,1.0,0.0,0.0,0.0,100000.0,-0.00066127628088,-0.00025310087949,-0.00084510241868,1.0,0.0,0.0,0.0,1.0,0.0,0.0,0.0,1.0,0.196126896888,0.118133563176,9.28831363916,0.1,0.0,0.0,0.0,0.1,0.0,0.0,0.0,0.1
1505402120130931488,17118,1505402120130761996,ardrone_base_link,-0.0217073132183,-0.0078452731464,-0.905048743847,0.424681075047,1.0,0.0,0.0,0.0,1.0,0.0,0.0,0.0,100000.0,-0.00164569541812,3.029871732e-05,-0.000460841227323,1.0,0.0,0.0,0.0,1.0,0.0,0.0,0.0,1.0,0.173784953728,0.112604422681,9.28677271605,0.1,0.0,0.0,0.0,0.1,0.0,0.0,0.0,0.1
1505402120133763801,17119,1505402120133610404,ardrone_base_link,-0.0216993463479,-0.00784175352973,-0.905045241784,0.424689010445,1.0,0.0,0.0,0.0,1.0,0.0,0.0,0.0,100000.0,-0.00136394798756,0.000527972355485,-0.000642878003418,1.0,0.0,0.0,0.0,1.0,0.0,0.0,0.0,1.0,0.177912731469,0.115486881323,9.283203125,0.1,0.0,0.0,0.0,0.1,0.0,0.0,0.0,0.1
1505402120138819301,17120,1505402120138682689,ardrone_base_link,-0.0217030524693,-0.00783385549534,-0.905045310182,0.424688821066,1.0,0.0,0.0,0.0,1.0,0.0,0.0,0.0,100000.0,-0.00115663558245,0.000388539396226,0.000212826766074,1.0,0.0,0.0,0.0,1.0,0.0,0.0,0.0,1.0,0.18115612492,0.113326456584,9.2861079812,0.1,0.0,0.0,0.0,0.1,0.0,0.0,0.0,0.1
1505402120143630089,17121,1505402120143320467,ardrone_base_link,-0.0217108825542,-0.00783775380128,-0.905041404122,0.424696672955,1.0,0.0,0.0,0.0,1.0,0.0,0.0,0.0,100000.0,-0.000627133995295,0.00012307241559,-0.000191532773897,1.0,0.0,0.0,0.0,1.0,0.0,0.0,0.0,1.0,0.191058604047,0.113212953694,9.28194959164,0.1,0.0,0.0,0.0,0.1,0.0,0.0,0.0,0.1
1505402120152787311,17122,1505402120152586808,ardrone_base_link,-0.0217108825542,-0.00783775380128,-0.905041404122,0.424696672955,1.0,0.0,0.0,0.0,1.0,0.0,0.0,0.0,100000.0,-0.000745292752981,-0.000106265768409,-2.08714045584e-05,1.0,0.0,0.0,0.0,1.0,0.0,0.0,0.0,1.0,0.18726321198,0.11664384231,9.28534219265,0.1,0.0,0.0,0.0,0.1,0.0,0.0,0.0,0.1
1505402120153772568,17123,1505402120153538492,ardrone_base_link,-0.0217108147154,-0.00783794171481,-0.905037728218,0.424704506328,1.0,0.0,0.0,0.0,1.0,0.0,0.0,0.0,100000.0,-0.000375006347895,-0.000676113180816,-0.00033999120933,1.0,0.0,0.0,0.0,1.0,0.0,0.0,0.0,1.0,0.186820590869,0.114946820773,9.28520784378,0.1,0.0,0.0,0.0,0.1,0.0,0.0,0.0,0.1
1505402120161946213,17124,1505402120161646981,ardrone_base_link,-0.0217187117318,-0.00784164846901,-0.905037554519,0.424704404287,1.0,0.0,0.0,0.0,1.0,0.0,0.0,0.0,100000.0,-0.000732436776161,-0.00025409180671,-0.00096536311321,1.0,0.0,0.0,0.0,1.0,0.0,0.0,0.0,1.0,0.181940240413,0.116096425429,9.2839928627,0.1,0.0,0.0,0.0,0.1,0.0,0.0,0.0,0.1
1505402120170385769,17125,1505402120170245661,ardrone_base_link,-0.0217187117318,-0.00784164846901,-0.905037554519,0.424704404287,1.0,0.0,0.0,0.0,1.0,0.0,0.0,0.0,100000.0,-0.00035621970892,-0.000432886183262,-0.000668680062518,1.0,0.0,0.0,0.0,1.0,0.0,0.0,0.0,1.0,0.185197598115,0.115050192736,9.2853661418,0.1,0.0,0.0,0.0,0.1,0.0,0.0,0.0,0.1
1505402120170610169,17126,1505402120170275169,ardrone_base_link,-0.0217187117318,-0.00784164846901,-0.905037554519,0.424704404287,1.0,0.0,0.0,0.0,1.0,0.0,0.0,0.0,100000.0,-3.73646616936e-05,0.000594248995185,-0.00117236678489,1.0,0.0,0.0,0.0,1.0,0.0,0.0,0.0,1.0,0.186634017527,0.114087152295,9.28371014595,0.1,0.0,0.0,0.0,0.1,0.0,0.0,0.0,0.1
1505402120176189883,17127,1505402120176051767,ardrone_base_link,-0.0217186428151,-0.00784183934232,-0.905033821994,0.42471235814,1.0,0.0,0.0,0.0,1.0,0.0,0.0,0.0,100000.0,0.000295531004667,0.000948697386775,-0.00026702368632,1.0,0.0,0.0,0.0,1.0,0.0,0.0,0.0,1.0,0.186306067556,0.114563013799,9.28473937511,0.1,0.0,0.0,0.0,0.1,0.0,0.0,0.0,0.1
1505402120179073557,17128,1505402120178940912,ardrone_base_link,-0.0217149364883,-0.00784973727646,-0.905033753527,0.424712547655,1.0,0.0,0.0,0.0,1.0,0.0,0.0,0.0,100000.0,0.00124124065042,0.00135391205549,-0.000457205576822,1.0,0.0,0.0,0.0,1.0,0.0,0.0,0.0,1.0,0.186540721729,0.113306450285,9.28475806713,0.1,0.0,0.0,0.0,0.1,0.0,0.0,0.0,0.1
1505402120183902155,17129,1505402120183684950,ardrone_base_link,-0.0217148685458,-0.00784992522508,-0.905030077485,0.424720380962,1.0,0.0,0.0,0.0,1.0,0.0,0.0,0.0,100000.0,0.00060298666358,0.00108577311039,-0.000439998955699,1.0,0.0,0.0,0.0,1.0,0.0,0.0,0.0,1.0,0.184868844971,0.113359715231,9.28430361748,0.1,0.0,0.0,0.0,0.1,0.0,0.0,0.0,0.1
1505402120189277386,17130,1505402120189046002,ardrone_base_link,-0.0217148685458,-0.00784992522508,-0.905030077485,0.424720380962,1.0,0.0,0.0,0.0,1.0,0.0,0.0,0.0,100000.0,0.00128158554435,7.14072957635e-05,-0.000960929784924,1.0,0.0,0.0,0.0,1.0,0.0,0.0,0.0,1.0,0.185597103462,0.112805882096,9.284892416,0.1,0.0,0.0,0.0,0.1,0.0,0.0,0.0,0.1
1505402120193770549,17131,1505402120193602949,ardrone_base_link,-0.021711162149,-0.00785782312654,-0.905030008947,0.424720570445,1.0,0.0,0.0,0.0,1.0,0.0,0.0,0.0,100000.0,0.000368751585484,-0.000692095607519,-0.00111925113015,1.0,0.0,0.0,0.0,1.0,0.0,0.0,0.0,1.0,0.186127872765,0.112310470641,9.28428959846,0.1,0.0,0.0,0.0,0.1,0.0,0.0,0.0,0.1
1505402120199001717,17132,1505402120198861755,ardrone_base_link,-0.0217190591008,-0.00786153001486,-0.905029835116,0.424720468506,1.0,0.0,0.0,0.0,1.0,0.0,0.0,0.0,100000.0,0.000925056694541,-0.000893921591341,-0.00091840326786,1.0,0.0,0.0,0.0,1.0,0.0,0.0,0.0,1.0,0.18624070026,0.0975116049871,9.28467220068,0.1,0.0,0.0,0.0,0.1,0.0,0.0,0.0,0.1
1505402120205037214,17133,1505402120204885213,ardrone_base_link,-0.0217226964747,-0.00785382302385,-0.905026171022,0.42472823274,1.0,0.0,0.0,0.0,1.0,0.0,0.0,0.0,100000.0,0.00068109476706,-0.00034803248127,-0.000483839772642,1.0,0.0,0.0,0.0,1.0,0.0,0.0,0.0,1.0,0.186655228585,0.0788032602519,9.28479661942,0.1,0.0,0.0,0.0,0.1,0.0,0.0,0.0,0.1
1505402120210455653,17134,1505402120210321660,ardrone_base_link,-0.0217264029384,-0.00784592515589,-0.905026239526,0.424728043157,1.0,0.0,0.0,0.0,1.0,0.0,0.0,0.0,100000.0,0.000580858439207,0.000835424289107,-0.000253227073699,1.0,0.0,0.0,0.0,1.0,0.0,0.0,0.0,1.0,0.186003472283,0.0450076607056,9.28477267027,0.1,0.0,0.0,0.0,0.1,0.0,0.0,0.0,0.1
1505402120215229147,17135,1505402120215086958,ardrone_base_link,-0.0217300415592,-0.00783821536727,-0.905022631786,0.424735686784,1.0,0.0,0.0,0.0,1.0,0.0,0.0,0.0,100000.0,0.00066826865077,0.00126342382282,-0.000311138370307,1.0,0.0,0.0,0.0,1.0,0.0,0.0,0.0,1.0,0.185851946473,0.0290523611475,9.28509802818,0.1,0.0,0.0,0.0,0.1,0.0,0.0,0.0,0.1
1505402120218828180,17136,1505402120218685109,ardrone_base_link,-0.021733748088,-0.00783031753019,-0.905022700154,0.424735497137,1.0,0.0,0.0,0.0,1.0,0.0,0.0,0.0,100000.0,0.000208266093978,0.000898877158761,0.00016342010349,1.0,0.0,0.0,0.0,1.0,0.0,0.0,0.0,1.0,0.185578210652,0.0238264183048,9.284897089,0.1,0.0,0.0,0.0,0.1,0.0,0.0,0.0,0.1
1505402120223765283,17137,1505402120223582035,ardrone_base_link,-0.0217373858121,-0.00782261084823,-0.905019035655,0.424743261183,1.0,0.0,0.0,0.0,1.0,0.0,0.0,0.0,100000.0,0.000603869557381,0.000568255782127,-0.000258471933194,1.0,0.0,0.0,0.0,1.0,0.0,0.0,0.0,1.0,0.185323495418,0.0309627139941,9.28497828245,0.1,0.0,0.0,0.0,0.1,0.0,0.0,0.0,0.1
1505402120229032912,17138,1505402120228891575,ardrone_base_link,-0.0217410924069,-0.00781471304253,-0.905019103885,0.424743071472,1.0,0.0,0.0,0.0,1.0,0.0,0.0,0.0,100000.0,0.000461533694761,-0.000520396977663,0.000194826046936,1.0,0.0,0.0,0.0,1.0,0.0,0.0,0.0,1.0,0.185527829826,0.0439933495596,9.28491636515,0.1,0.0,0.0,0.0,0.1,0.0,0.0,0.0,0.1
1505402120234144088,17139,1505402120234002766,ardrone_base_link,-0.0217447314291,-0.00780700344333,-0.905015495744,0.424750714909,1.0,0.0,0.0,0.0,1.0,0.0,0.0,0.0,100000.0,0.000609807670116,0.000351242721081,-0.000974022026639,1.0,0.0,0.0,0.0,1.0,0.0,0.0,0.0,1.0,0.185598928854,0.0381397661287,9.28488248587,0.1,0.0,0.0,0.0,0.1,0.0,0.0,0.0,0.1
1505402120241979625,17140,1505402120241785504,ardrone_base_link,-0.0217563367855,-0.0078028137278,-0.905015390159,0.424750422581,1.0,0.0,0.0,0.0,1.0,0.0,0.0,0.0,100000.0,0.00054544582963,3.1934119761e-05,-0.000917114899494,1.0,0.0,0.0,0.0,1.0,0.0,0.0,0.0,1.0,0.185854520276,0.055383244995,9.284897089,0.1,0.0,0.0,0.0,0.1,0.0,0.0,0.0,0.1
1505402120244174021,17141,1505402120243964821,ardrone_base_link,-0.0217563367855,-0.0078028137278,-0.905015390159,0.424750422581,1.0,0.0,0.0,0.0,1.0,0.0,0.0,0.0,100000.0,0.000428207218647,0.000617028214037,-0.000820160203148,1.0,0.0,0.0,0.0,1.0,0.0,0.0,0.0,1.0,0.18598405011,0.0656045334414,9.28475806713,0.1,0.0,0.0,0.0,0.1,0.0,0.0,0.0,0.1
1505402120249221798,17142,1505402120249038169,ardrone_base_link,-0.0217562682101,-0.00780300493178,-0.90501165723,0.424758376239,1.0,0.0,0.0,0.0,1.0,0.0,0.0,0.0,100000.0,0.000540677458048,0.000345418229699,0.000354832736775,1.0,0.0,0.0,0.0,1.0,0.0,0.0,0.0,1.0,0.185873194039,0.103393447772,9.28461495638,0.1,0.0,0.0,0.0,0.1,0.0,0.0,0.0,0.1
1505402120254104074,17143,1505402120253944952,ardrone_base_link,-0.0217561996331,-0.00780319613516,-0.905007924231,0.424766329864,1.0,0.0,0.0,0.0,1.0,0.0,0.0,0.0,100000.0,0.000500317662954,-0.00053608044982,0.00147082656622,1.0,0.0,0.0,0.0,1.0,0.0,0.0,0.0,1.0,0.185835791752,0.121711505391,9.2845238328,0.1,0.0,0.0,0.0,0.1,0.0,0.0,0.0,0.1
1505402120258912149,17144,1505402120258722359,ardrone_base_link,-0.0217561320934,-0.00780338444093,-0.905004247725,0.424774162947,1.0,0.0,0.0,0.0,1.0,0.0,0.0,0.0,100000.0,0.000329595059156,-3.92645597458e-05,0.00144240341615,1.0,0.0,0.0,0.0,1.0,0.0,0.0,0.0,1.0,0.185679939762,0.125800046325,9.28448060751,0.1,0.0,0.0,0.0,0.1,0.0,0.0,0.0,0.1
1505402120265818799,17145,1505402120265463650,ardrone_base_link,-0.0217602532605,-0.00781518073638,-0.905000272718,0.424782203851,1.0,0.0,0.0,0.0,1.0,0.0,0.0,0.0,100000.0,0.00047118216753,-0.000535058788955,0.00105944904499,1.0,0.0,0.0,0.0,1.0,0.0,0.0,0.0,1.0,0.185611816123,0.120576184429,9.28453843594,0.1,0.0,0.0,0.0,0.1,0.0,0.0,0.0,0.1
1505402120269505408,17146,1505402120269343846,ardrone_base_link,-0.0217602532605,-0.00781518073638,-0.905000272718,0.424782203851,1.0,0.0,0.0,0.0,1.0,0.0,0.0,0.0,100000.0,6.3706189394e-05,0.00067254435271,0.00024996465072,1.0,0.0,0.0,0.0,1.0,0.0,0.0,0.0,1.0,0.185533780605,0.104993595742,9.2845857501,0.1,0.0,0.0,0.0,0.1,0.0,0.0,0.0,0.1
1505402120275759778,17147,1505402120275575155,ardrone_base_link,-0.0217601856171,-0.00781536907723,-0.904996596074,0.424790036868,1.0,0.0,0.0,0.0,1.0,0.0,0.0,0.0,100000.0,-8.73170793056e-05,0.000914285890758,0.000589434523135,1.0,0.0,0.0,0.0,1.0,0.0,0.0,0.0,1.0,0.185373912752,0.11190527007,9.28457173109,0.1,0.0,0.0,0.0,0.1,0.0,0.0,0.0,0.1
1505402120279302717,17148,1505402120279140281,ardrone_base_link,-0.0217601169314,-0.00781556031503,-0.904992862797,0.424797990361,1.0,0.0,0.0,0.0,1.0,0.0,0.0,0.0,100000.0,-0.000578530132771,0.00106493756175,0.000961155164987,1.0,0.0,0.0,0.0,1.0,0.0,0.0,0.0,1.0,0.185322290659,0.110441305488,9.28457173109,0.1,0.0,0.0,0.0,0.1,0.0,0.0,0.0,0.1
1505402120284292609,17149,1505402120284074145,ardrone_base_link,-0.02175585984,-0.00780414345209,-0.904989427888,0.424805735977,1.0,0.0,0.0,0.0,1.0,0.0,0.0,0.0,100000.0,-0.000547487288713,0.00127891078591,0.00151299173012,1.0,0.0,0.0,0.0,1.0,0.0,0.0,0.0,1.0,0.185316266865,0.118171932921,9.2845238328,0.1,0.0,0.0,0.0,0.1,0.0,0.0,0.0,0.1
1505402120289294527,17150,1505402120289138515,ardrone_base_link,-0.0217600492847,-0.00781574865471,-0.904989186016,0.424805823314,1.0,0.0,0.0,0.0,1.0,0.0,0.0,0.0,100000.0,0.000366631924408,0.000530587509274,0.000936863478273,1.0,0.0,0.0,0.0,1.0,0.0,0.0,0.0,1.0,0.185503643379,0.115458122268,9.28455712795,0.1,0.0,0.0,0.0,0.1,0.0,0.0,0.0,0.1
1505402120298101504,17151,1505402120297978572,ardrone_base_link,-0.0217599805956,-0.00781593989131,-0.9049854526,0.424813776742,1.0,0.0,0.0,0.0,1.0,0.0,0.0,0.0,100000.0,0.00106495246291,0.000552092678845,0.000199868809432,1.0,0.0,0.0,0.0,1.0,0.0,0.0,0.0,1.0,0.185794063285,0.112452121079,9.28454778194,0.1,0.0,0.0,0.0,0.1,0.0,0.0,0.0,0.1
1505402120300001524,17152,1505402120299867795,ardrone_base_link,-0.0217599805956,-0.00781593989131,-0.9049854526,0.424813776742,1.0,0.0,0.0,0.0,1.0,0.0,0.0,0.0,100000.0,0.00112292543054,-2.73622572422e-06,-0.000684203812853,1.0,0.0,0.0,0.0,1.0,0.0,0.0,0.0,1.0,0.186074224487,0.114062491246,9.28457173109,0.1,0.0,0.0,0.0,0.1,0.0,0.0,0.0,0.1
1505402120306274003,17153,1505402120306130192,ardrone_base_link,-0.0217562056654,-0.00782402570975,-0.90498170744,0.424821799507,1.0,0.0,0.0,0.0,1.0,0.0,0.0,0.0,100000.0,0.000238131731749,-0.00023206602782,-0.000609833514318,1.0,0.0,0.0,0.0,1.0,0.0,0.0,0.0,1.0,0.186281643808,0.112695226818,9.28455245495,0.1,0.0,0.0,0.0,0.1,0.0,0.0,0.0,0.1
1505402120309537553,17154,1505402120309422571,ardrone_base_link,-0.0217599129456,-0.0078161282298,-0.904981775683,0.424821609631,1.0,0.0,0.0,0.0,1.0,0.0,0.0,0.0,100000.0,-0.000930089503527,-0.000122804194689,-6.66122068651e-05,1.0,0.0,0.0,0.0,1.0,0.0,0.0,0.0,1.0,0.186290862039,0.114940514043,9.28455245495,0.1,0.0,0.0,0.0,0.1,0.0,0.0,0.0,0.1
1505402120314392839,17155,1505402120314226666,ardrone_base_link,-0.0217598442532,-0.00781631946521,-0.904978042128,0.424829562994,1.0,0.0,0.0,0.0,1.0,0.0,0.0,0.0,100000.0,-0.000579696148634,0.000362080521882,0.000935012008995,1.0,0.0,0.0,0.0,1.0,0.0,0.0,0.0,1.0,0.186127379909,0.114251985215,9.28455712795,0.1,0.0,0.0,0.0,0.1,0.0,0.0,0.0,0.1
1505402120319385130,17156,1505402120319260139,ardrone_base_link,-0.0217597765999,-0.00781650780252,-0.904974365075,0.424837395819,1.0,0.0,0.0,0.0,1.0,0.0,0.0,0.0,100000.0,-0.000393077731133,0.000815877690911,0.00141643162351,1.0,0.0,0.0,0.0,1.0,0.0,0.0,0.0,1.0,0.185828216374,0.113103576191,9.28454310894,0.1,0.0,0.0,0.0,0.1,0.0,0.0,0.0,0.1
1505402120324385733,17157,1505402120324209686,ardrone_base_link,-0.0217597079041,-0.00781669903673,-0.904970631381,0.424845349116,1.0,0.0,0.0,0.0,1.0,0.0,0.0,0.0,100000.0,7.32280313969e-05,0.00131496973336,0.00143752479926,1.0,0.0,0.0,0.0,1.0,0.0,0.0,0.0,1.0,0.185492599756,0.113646502607,9.28456705809,0.1,0.0,0.0,0.0,0.1,0.0,0.0,0.0,0.1
1505402120329954773,17158,1505402120329701093,ardrone_base_link,-0.0217597079041,-0.00781669903673,-0.904970631381,0.424845349116,1.0,0.0,0.0,0.0,1.0,0.0,0.0,0.0,100000.0,-0.000287685543299,0.000573796220124,0.000639901030809,1.0,0.0,0.0,0.0,1.0,0.0,0.0,0.0,1.0,0.185278116167,0.11275258977,9.26958482265,0.1,0.0,0.0,0.0,0.1,0.0,0.0,0.0,0.1
1505402120338871732,17159,1505402120338671950,ardrone_base_link,-0.0217675366382,-0.00782059544139,-0.904966780394,0.424853079333,1.0,0.0,0.0,0.0,1.0,0.0,0.0,0.0,100000.0,-0.00103868916631,-7.85226002336e-05,-0.000133887398988,1.0,0.0,0.0,0.0,1.0,0.0,0.0,0.0,1.0,0.185226932168,0.113656359725,9.2661776185,0.1,0.0,0.0,0.0,0.1,0.0,0.0,0.0,0.1
1505402120341057640,17160,1505402120340807622,ardrone_base_link,-0.0217675366382,-0.00782059544139,-0.904966780394,0.424853079333,1.0,0.0,0.0,0.0,1.0,0.0,0.0,0.0,100000.0,-9.18842852116e-05,-0.000865414738655,-0.000498559325933,1.0,0.0,0.0,0.0,1.0,0.0,0.0,0.0,1.0,0.185362650082,0.113519729115,9.25051078796,0.1,0.0,0.0,0.0,0.1,0.0,0.0,0.0,0.1
1505402120344774010,17161,1505402120344570421,ardrone_base_link,-0.0217753661458,-0.00782449576528,-0.904962872657,0.424860929961,1.0,0.0,0.0,0.0,1.0,0.0,0.0,0.0,100000.0,-7.48485399527e-05,-0.0013278638944,-0.00010016746819,1.0,0.0,0.0,0.0,1.0,0.0,0.0,0.0,1.0,0.185532375053,0.113673655316,9.26842182875,0.1,0.0,0.0,0.0,0.1,0.0,0.0,0.0,0.1
1505402120349730961,17162,1505402120349529287,ardrone_base_link,-0.02177159073,-0.00783258151983,-0.904959127014,0.424868952664,1.0,0.0,0.0,0.0,1.0,0.0,0.0,0.0,100000.0,0.000963263213634,-0.000532136298716,0.000615871802438,1.0,0.0,0.0,0.0,1.0,0.0,0.0,0.0,1.0,0.185622439906,0.114187786169,9.27911658287,0.1,0.0,0.0,0.0,0.1,0.0,0.0,0.0,0.1
1505402120356740408,17163,1505402120356555994,ardrone_base_link,-0.02177159073,-0.00783258151983,-0.904959127014,0.424868952664,1.0,0.0,0.0,0.0,1.0,0.0,0.0,0.0,100000.0,0.000772926956415,-5.38341701031e-05,0.000673560600262,1.0,0.0,0.0,0.0,1.0,0.0,0.0,0.0,1.0,0.185578009859,0.0990410828963,9.29129501581,0.1,0.0,0.0,0.0,0.1,0.0,0.0,0.0,0.1
1505402120361337033,17164,1505402120361064095,ardrone_base_link,-0.021771521893,-0.00783277285787,-0.904955393043,0.424876905828,1.0,0.0,0.0,0.0,1.0,0.0,0.0,0.0,100000.0,6.5416097641e-05,0.000766975805163,0.000118831871077,1.0,0.0,0.0,0.0,1.0,0.0,0.0,0.0,1.0,0.185364238173,0.0958402119577,9.29743884802,0.1,0.0,0.0,0.0,0.1,0.0,0.0,0.0,0.1
1505402120364951513,17165,1505402120364756571,ardrone_base_link,-0.0217752296541,-0.00782487560756,-0.904955461363,0.424876715819,1.0,0.0,0.0,0.0,1.0,0.0,0.0,0.0,100000.0,0.0010878033936,0.000741862750147,-0.000855976890307,1.0,0.0,0.0,0.0,1.0,0.0,0.0,0.0,1.0,0.185187321156,0.079544570297,9.27858561277,0.1,0.0,0.0,0.0,0.1,0.0,0.0,0.0,0.1
1505402120369912532,17166,1505402120369760233,ardrone_base_link,-0.0217752296541,-0.00782487560756,-0.904955461363,0.424876715819,1.0,0.0,0.0,0.0,1.0,0.0,0.0,0.0,100000.0,0.000566463917494,0.000300535000861,-0.00128655834123,1.0,0.0,0.0,0.0,1.0,0.0,0.0,0.0,1.0,0.185046419129,0.0972189763561,9.28672014475,0.1,0.0,0.0,0.0,0.1,0.0,0.0,0.0,0.1
1505402120387300623,17167,1505402120387033886,ardrone_base_link,-0.0217714530543,-0.0078329641953,-0.904951659003,0.424884858958,1.0,0.0,0.0,0.0,1.0,0.0,0.0,0.0,100000.0,0.00231735408306,0.000240448876866,-0.000160813797265,1.0,0.0,0.0,0.0,1.0,0.0,0.0,0.0,1.0,0.185147326812,0.107591138035,9.27639397383,0.1,0.0,0.0,0.0,0.1,0.0,0.0,0.0,0.1
1505402120387310481,17168,1505402120387084327,ardrone_base_link,-0.0217676773565,-0.00784104981812,-0.904947913078,0.424892881531,1.0,0.0,0.0,0.0,1.0,0.0,0.0,0.0,100000.0,0.00187620520592,0.000138463452458,0.0012526869541,1.0,0.0,0.0,0.0,1.0,0.0,0.0,0.0,1.0,0.185396784917,0.119572784565,9.28817987442,0.1,0.0,0.0,0.0,0.1,0.0,0.0,0.0,0.1
1505402120390024126,17169,1505402120389870093,ardrone_base_link,-0.0217755046396,-0.00784494960034,-0.904944004904,0.424900732115,1.0,0.0,0.0,0.0,1.0,0.0,0.0,0.0,100000.0,0.000973504036665,0.000427957624197,0.00260762847029,1.0,0.0,0.0,0.0,1.0,0.0,0.0,0.0,1.0,0.185720737278,0.125653695501,9.28677738905,0.1,0.0,0.0,0.0,0.1,0.0,0.0,0.0,0.1
1505402120395499336,17170,1505402120395373171,ardrone_base_link,-0.0217754367385,-0.00784513807319,-0.904940327234,0.424908564646,1.0,0.0,0.0,0.0,1.0,0.0,0.0,0.0,100000.0,0.000946924090385,3.80733981729e-05,0.00219854479656,1.0,0.0,0.0,0.0,1.0,0.0,0.0,0.0,1.0,0.186041093618,0.106486310251,9.28333688974,0.1,0.0,0.0,0.0,0.1,0.0,0.0,0.0,0.1
1505402120395796746,17171,1505402120395697719,ardrone_base_link,-0.0217753677912,-0.00784532944503,-0.904936592915,0.424916517644,1.0,0.0,0.0,0.0,1.0,0.0,0.0,0.0,100000.0,-0.00127951055765,-0.000389289110899,0.000331345014274,1.0,0.0,0.0,0.0,1.0,0.0,0.0,0.0,1.0,0.170912918076,0.114622074366,9.28598356247,0.1,0.0,0.0,0.0,0.1,0.0,0.0,0.0,0.1
1505402120400071894,17172,1505402120399790968,ardrone_base_link,-0.0217753677912,-0.00784532944503,-0.904936592915,0.424916517644,1.0,0.0,0.0,0.0,1.0,0.0,0.0,0.0,100000.0,0.000244460999966,-0.00103193707764,-0.000948091037571,1.0,0.0,0.0,0.0,1.0,0.0,0.0,0.0,1.0,0.152241884358,0.10429681614,9.28173404932,0.1,0.0,0.0,0.0,0.1,0.0,0.0,0.0,0.1
1505402120406365737,17173,1505402120406150289,ardrone_base_link,-0.0217674716613,-0.00784162082872,-0.904936766907,0.424916620127,1.0,0.0,0.0,0.0,1.0,0.0,0.0,0.0,100000.0,-0.00035211071372,-0.000879411585629,-0.00214285543188,1.0,0.0,0.0,0.0,1.0,0.0,0.0,0.0,1.0,0.132663849741,0.116353741847,9.28493564129,0.1,0.0,0.0,0.0,0.1,0.0,0.0,0.0,0.1
1505402120410045565,17174,1505402120409883390,ardrone_base_link,-0.0217674716613,-0.00784162082872,-0.904936766907,0.424916620127,1.0,0.0,0.0,0.0,1.0,0.0,0.0,0.0,100000.0,0.000424388796091,-0.000484511256218,-0.000762496842071,1.0,0.0,0.0,0.0,1.0,0.0,0.0,0.0,1.0,0.119444578141,0.115435478278,9.28472009897,0.1,0.0,0.0,0.0,0.1,0.0,0.0,0.0,0.1
1505402120418819362,17175,1505402120418669595,ardrone_base_link,-0.0217557976835,-0.00784599660144,-0.904933194629,0.424924744941,1.0,0.0,0.0,0.0,1.0,0.0,0.0,0.0,100000.0,0.00114131718874,0.000463020987809,-5.10897953063e-05,1.0,0.0,0.0,0.0,1.0,0.0,0.0,0.0,1.0,0.14481120538,0.112553521618,9.28375804424,0.1,0.0,0.0,0.0,0.1,0.0,0.0,0.0,0.1
1505402120420234394,17176,1505402120419880492,ardrone_base_link,-0.0217479015815,-0.00784228791711,-0.904933368515,0.424924847292,1.0,0.0,0.0,0.0,1.0,0.0,0.0,0.0,100000.0,-0.000426951795816,0.000953140668571,0.000852440018207,1.0,0.0,0.0,0.0,1.0,0.0,0.0,0.0,1.0,0.151712009497,0.115896517597,9.28512665033,0.1,0.0,0.0,0.0,0.1,0.0,0.0,0.0,0.1
1505402120426609564,17177,1505402120426275551,ardrone_base_link,-0.0217478326592,-0.00784247904695,-0.904929634053,0.424932800229,1.0,0.0,0.0,0.0,1.0,0.0,0.0,0.0,100000.0,0.000400003045797,0.000941109843552,0.000580912223086,1.0,0.0,0.0,0.0,1.0,0.0,0.0,0.0,1.0,0.188372740149,0.112112196535,9.28373935223,0.1,0.0,0.0,0.0,0.1,0.0,0.0,0.0,0.1
1505402120432768862,17178,1505402120432588438,ardrone_base_link,-0.0217477647795,-0.0078426672803,-0.904925956105,0.424940632635,1.0,0.0,0.0,0.0,1.0,0.0,0.0,0.0,100000.0,-0.00139740481973,0.000299838400679,0.000362014310667,1.0,0.0,0.0,0.0,1.0,0.0,0.0,0.0,1.0,0.186241156608,0.115506257862,9.28474872112,0.1,0.0,0.0,0.0,0.1,0.0,0.0,0.0,0.1
1505402120435397501,17179,1505402120435251955,ardrone_base_link,-0.0217593690779,-0.00783847922813,-0.904925850659,0.424940340413,1.0,0.0,0.0,0.0,1.0,0.0,0.0,0.0,100000.0,-0.000913385301828,-0.000180121511221,0.000631522852927,1.0,0.0,0.0,0.0,1.0,0.0,0.0,0.0,1.0,0.187908269092,0.115201974101,9.28475806713,0.1,0.0,0.0,0.0,0.1,0.0,0.0,0.0,0.1
1505402120443649428,17180,1505402120443425015,ardrone_base_link,-0.021759300189,-0.00783867045876,-0.904922116061,0.424948293284,1.0,0.0,0.0,0.0,1.0,0.0,0.0,0.0,100000.0,-0.000783164112363,-0.000408563762903,0.00106335827149,1.0,0.0,0.0,0.0,1.0,0.0,0.0,0.0,1.0,0.192517932132,0.113820362091,9.28436086178,0.1,0.0,0.0,0.0,0.1,0.0,0.0,0.0,0.1
1505402120446418615,17181,1505402120446297829,ardrone_base_link,-0.0217592323423,-0.00783885879136,-0.904918437979,0.424956125624,1.0,0.0,0.0,0.0,1.0,0.0,0.0,0.0,100000.0,-0.000681661069393,0.000419810414314,0.00111175468192,1.0,0.0,0.0,0.0,1.0,0.0,0.0,0.0,1.0,0.175150201097,0.114953045361,9.28482524157,0.1,0.0,0.0,0.0,0.1,0.0,0.0,0.0,0.1
1505402120450399067,17182,1505402120450225769,ardrone_base_link,-0.0217591634501,-0.00783905002079,-0.904914703243,0.42496407843,1.0,0.0,0.0,0.0,1.0,0.0,0.0,0.0,100000.0,0.000660244375467,0.000599128194153,0.000478046946228,1.0,0.0,0.0,0.0,1.0,0.0,0.0,0.0,1.0,0.194411064684,0.113310603052,9.28433749676,0.1,0.0,0.0,0.0,0.1,0.0,0.0,0.0,0.1
1505402120458249965,17183,1505402120458096851,ardrone_base_link,-0.0217554549819,-0.00784694679774,-0.9049146348,0.424964268296,1.0,0.0,0.0,0.0,1.0,0.0,0.0,0.0,100000.0,0.000495009124279,0.00041977505316,0.000235099811107,1.0,0.0,0.0,0.0,1.0,0.0,0.0,0.0,1.0,0.178938236833,0.114310516417,9.28455712795,0.1,0.0,0.0,0.0,0.1,0.0,0.0,0.0,0.1
1505402120460461077,17184,1505402120460274493,ardrone_base_link,-0.0217632848525,-0.00785084507838,-0.90491078259,0.424971998156,1.0,0.0,0.0,0.0,1.0,0.0,0.0,0.0,100000.0,0.00156770274043,-0.000508155673742,3.92771326005e-05,1.0,0.0,0.0,0.0,1.0,0.0,0.0,0.0,1.0,0.190131250024,0.114307559282,9.28464825153,0.1,0.0,0.0,0.0,0.1,0.0,0.0,0.0,0.1
1505402120466437627,17185,1505402120466271720,ardrone_base_link,-0.0217595762599,-0.0078587419388,-0.904910714044,0.424972188061,1.0,0.0,0.0,0.0,1.0,0.0,0.0,0.0,100000.0,0.00119236856699,-0.00183423981071,0.000541429733858,1.0,0.0,0.0,0.0,1.0,0.0,0.0,0.0,1.0,0.187191948667,0.113694063202,9.28445665836,0.1,0.0,0.0,0.0,0.1,0.0,0.0,0.0,0.1
1505402120470261740,17186,1505402120470089366,ardrone_base_link,-0.0217674030659,-0.00786264233546,-0.904906805116,0.424980038441,1.0,0.0,0.0,0.0,1.0,0.0,0.0,0.0,100000.0,0.00114107877016,-0.00176255684346,0.000324860215187,1.0,0.0,0.0,0.0,1.0,0.0,0.0,0.0,1.0,0.182602930814,0.113944497891,9.28466752768,0.1,0.0,0.0,0.0,0.1,0.0,0.0,0.0,0.1
1505402120475597534,17187,1505402120475499731,ardrone_base_link,-0.0217752298033,-0.0078665428697,-0.904902896052,0.424987888753,1.0,0.0,0.0,0.0,1.0,0.0,0.0,0.0,100000.0,0.000499319285154,-0.00195224396884,-0.000150882304297,1.0,0.0,0.0,0.0,1.0,0.0,0.0,0.0,1.0,0.188571616635,0.112914739363,9.28448528051,0.1,0.0,0.0,0.0,0.1,0.0,0.0,0.0,0.1
1505402120480316425,17188,1505402120480109302,ardrone_base_link,-0.0217752298033,-0.0078665428697,-0.904902896052,0.424987888753,1.0,0.0,0.0,0.0,1.0,0.0,0.0,0.0,100000.0,0.000373736023903,-0.000821883848403,-0.000402919307817,1.0,0.0,0.0,0.0,1.0,0.0,0.0,0.0,1.0,0.182612660155,0.112813566998,9.28455245495,0.1,0.0,0.0,0.0,0.1,0.0,0.0,0.0,0.1
1505402120485402598,17189,1505402120485197010,ardrone_base_link,-0.0217794169099,-0.00787814889217,-0.90490265315,0.424987976408,1.0,0.0,0.0,0.0,1.0,0.0,0.0,0.0,100000.0,0.000175282359123,-0.000439859926701,4.17299816036e-05,1.0,0.0,0.0,0.0,1.0,0.0,0.0,0.0,1.0,0.185857970268,0.112561462075,9.2845857501,0.1,0.0,0.0,0.0,0.1,0.0,0.0,0.0,0.1
1505402120491778061,17190,1505402120491666031,ardrone_base_link,-0.0217714529157,-0.00787462809966,-0.904899148943,0.424995910936,1.0,0.0,0.0,0.0,1.0,0.0,0.0,0.0,100000.0,0.00068349763751,0.000156060807058,0.000773786741775,1.0,0.0,0.0,0.0,1.0,0.0,0.0,0.0,1.0,0.169779294729,0.11227160804,9.2844140172,0.1,0.0,0.0,0.0,0.1,0.0,0.0,0.0,0.1
1505402120498060041,17191,1505402120497908147,ardrone_base_link,-0.0217713837092,-0.00787481943649,-0.904895413857,0.425003863573,1.0,0.0,0.0,0.0,1.0,0.0,0.0,0.0,100000.0,8.00155175966e-05,0.000522816553712,0.00168681726791,1.0,0.0,0.0,0.0,1.0,0.0,0.0,0.0,1.0,0.164366349578,0.11269465182,9.28446133137,0.1,0.0,0.0,0.0,0.1,0.0,0.0,0.0,0.1
1505402120500483833,17192,1505402120500336719,ardrone_base_link,-0.0217713155496,-0.00787500787367,-0.904891735294,0.425011695682,1.0,0.0,0.0,0.0,1.0,0.0,0.0,0.0,100000.0,-2.46204435825e-05,0.000724364072084,0.00147575023584,1.0,0.0,0.0,0.0,1.0,0.0,0.0,0.0,1.0,0.151021755673,0.112764956802,9.28429427147,0.1,0.0,0.0,0.0,0.1,0.0,0.0,0.0,0.1
1505402120507775668,17193,1505402120507600804,ardrone_base_link,-0.0217633506295,-0.00787148970234,-0.904888174215,0.425019750582,1.0,0.0,0.0,0.0,1.0,0.0,0.0,0.0,100000.0,-0.000548642128706,0.000710727646947,0.00146355491597,1.0,0.0,0.0,0.0,1.0,0.0,0.0,0.0,1.0,0.167568270117,0.113384394534,9.28444731236,0.1,0.0,0.0,0.0,0.1,0.0,0.0,0.0,0.1
1505402120510432628,17194,1505402120510272269,ardrone_base_link,-0.0217632824988,-0.00787167807,-0.904884495515,0.425027582629,1.0,0.0,0.0,0.0,1.0,0.0,0.0,0.0,100000.0,-0.000623375177383,0.000772323459387,0.00103043206036,1.0,0.0,0.0,0.0,1.0,0.0,0.0,0.0,1.0,0.180366588011,0.113857663982,9.28451915979,0.1,0.0,0.0,0.0,0.1,0.0,0.0,0.0,0.1
1505402120515648612,17195,1505402120515523603,ardrone_base_link,-0.0217711089636,-0.0078755789797,-0.904880586006,0.425035432805,1.0,0.0,0.0,0.0,1.0,0.0,0.0,0.0,100000.0,0.000533606857061,-3.58959659934e-05,0.000566552393138,1.0,0.0,0.0,0.0,1.0,0.0,0.0,0.0,1.0,0.193316157907,0.113944926858,9.26963213682,0.1,0.0,0.0,0.0,0.1,0.0,0.0,0.0,0.1
1505402120521072319,17196,1505402120520880089,ardrone_base_link,-0.0217711089636,-0.0078755789797,-0.904880586006,0.425035432805,1.0,0.0,0.0,0.0,1.0,0.0,0.0,0.0,100000.0,0.000408720225096,-2.50805169344e-05,0.000593499280512,1.0,0.0,0.0,0.0,1.0,0.0,0.0,0.0,1.0,0.199411836267,0.114276774041,9.26626348495,0.1,0.0,0.0,0.0,0.1,0.0,0.0,0.0,0.1
1505402120525646915,17197,1505402120525525570,ardrone_base_link,-0.0217710407974,-0.00787576741451,-0.90487690717,0.425043264787,1.0,0.0,0.0,0.0,1.0,0.0,0.0,0.0,100000.0,0.00137611478567,-0.000451790168881,5.75170852244e-05,1.0,0.0,0.0,0.0,1.0,0.0,0.0,0.0,1.0,0.181361974403,0.113973713294,9.25047749281,0.1,0.0,0.0,0.0,0.1,0.0,0.0,0.0,0.1
1505402120530829525,17198,1505402120530718063,ardrone_base_link,-0.0217752271954,-0.0078873736902,-0.904876664162,0.425043352463,1.0,0.0,0.0,0.0,1.0,0.0,0.0,0.0,100000.0,0.000653557479382,-0.000178060508915,0.000212117811316,1.0,0.0,0.0,0.0,1.0,0.0,0.0,0.0,1.0,0.18891871497,0.114287279174,9.26843117476,0.1,0.0,0.0,0.0,0.1,0.0,0.0,0.0,0.1
1505402120543267378,17199,1505402120542944349,ardrone_base_link,-0.0217751578769,-0.00788756506019,-0.904872928658,0.425051304901,1.0,0.0,0.0,0.0,1.0,0.0,0.0,0.0,100000.0,0.000432692468166,0.000280213542283,0.000345414271578,1.0,0.0,0.0,0.0,1.0,0.0,0.0,0.0,1.0,0.17857575044,0.114159200527,9.27905933857,0.1,0.0,0.0,0.0,0.1,0.0,0.0,0.0,0.1
1505402120543280080,17200,1505402120542993247,ardrone_base_link,-0.0217750896069,-0.00788775353005,-0.904869249685,0.425059136816,1.0,0.0,0.0,0.0,1.0,0.0,0.0,0.0,100000.0,0.000822298228741,-5.85475936532e-05,0.000311167212203,1.0,0.0,0.0,0.0,1.0,0.0,0.0,0.0,1.0,0.190191506222,0.0989793390036,9.29131896496,0.1,0.0,0.0,0.0,0.1,0.0,0.0,0.0,0.1
1505402120545811603,17201,1505402120545581074,ardrone_base_link,-0.0217750896069,-0.00788775353005,-0.904869249685,0.425059136816,1.0,0.0,0.0,0.0,1.0,0.0,0.0,0.0,100000.0,0.00048952549696,2.86567956209e-05,0.000976167386398,1.0,0.0,0.0,0.0,1.0,0.0,0.0,0.0,1.0,0.188021242619,0.0802833613008,9.2975346446,0.1,0.0,0.0,0.0,0.1,0.0,0.0,0.0,0.1
1505402120552385605,17202,1505402120552219840,ardrone_base_link,-0.0217787297058,-0.00788004843286,-0.904865582844,0.42506689915,1.0,0.0,0.0,0.0,1.0,0.0,0.0,0.0,100000.0,0.00126821175218,-0.00052616558969,0.000921298516914,1.0,0.0,0.0,0.0,1.0,0.0,0.0,0.0,1.0,0.184437851608,0.0454820436426,9.27873865366,0.1,0.0,0.0,0.0,0.1,0.0,0.0,0.0,0.1
1505402120556417436,17203,1505402120556252979,ardrone_base_link,-0.0217902683506,-0.00787605137256,-0.904861798183,0.425074438433,1.0,0.0,0.0,0.0,1.0,0.0,0.0,0.0,100000.0,0.00068262591958,-0.000465371675091,0.00111771107186,1.0,0.0,0.0,0.0,1.0,0.0,0.0,0.0,1.0,0.186731529981,0.044309662655,9.28697832823,0.1,0.0,0.0,0.0,0.1,0.0,0.0,0.0,0.1
1505402120561528927,17204,1505402120560800363,ardrone_base_link,-0.0217939086859,-0.00786834647381,-0.904858131105,0.425082200569,1.0,0.0,0.0,0.0,1.0,0.0,0.0,0.0,100000.0,0.000273209065199,0.000236089341342,0.000733270775527,1.0,0.0,0.0,0.0,1.0,0.0,0.0,0.0,1.0,0.182497076318,0.0420371451415,9.2767000556,0.1,0.0,0.0,0.0,0.1,0.0,0.0,0.0,0.1
1505402120565795907,17205,1505402120565567143,ardrone_base_link,-0.0217939086859,-0.00786834647381,-0.904858131105,0.425082200569,1.0,0.0,0.0,0.0,1.0,0.0,0.0,0.0,100000.0,0.000536244362593,0.000389138265746,-4.3909996748e-05,1.0,0.0,0.0,0.0,1.0,0.0,0.0,0.0,1.0,0.185892871767,0.0796921988949,9.28839015961,0.1,0.0,0.0,0.0,0.1,0.0,0.0,0.0,0.1
1505402120570874947,17206,1505402120570702432,ardrone_base_link,-0.021797550148,-0.00786063885419,-0.904854520495,0.425089842155,1.0,0.0,0.0,0.0,1.0,0.0,0.0,0.0,100000.0,0.00015065819025,0.00110290385783,0.000107451342046,1.0,0.0,0.0,0.0,1.0,0.0,0.0,0.0,1.0,0.185692644492,0.0931280167773,9.28693101406,0.1,0.0,0.0,0.0,0.1,0.0,0.0,0.0,0.1
1505402120578787694,17207,1505402120578609001,ardrone_base_link,-0.0217937714293,-0.00786872663953,-0.904850715951,0.4250979846,1.0,0.0,0.0,0.0,1.0,0.0,0.0,0.0,100000.0,0.00123840197921,0.000331529416144,0.000155872447067,1.0,0.0,0.0,0.0,1.0,0.0,0.0,0.0,1.0,0.184815634787,0.0955094143748,9.28339471817,0.1,0.0,0.0,0.0,0.1,0.0,0.0,0.0,0.1
1505402120581156542,17208,1505402120580934560,ardrone_base_link,-0.0217974810644,-0.00786083042037,-0.904850784583,0.425097794399,1.0,0.0,0.0,0.0,1.0,0.0,0.0,0.0,100000.0,0.00064780190587,0.000232564285398,0.000950798625126,1.0,0.0,0.0,0.0,1.0,0.0,0.0,0.0,1.0,0.186382241175,0.0835483035073,9.28626102209,0.1,0.0,0.0,0.0,0.1,0.0,0.0,0.0,0.1
1505402120589176691,17209,1505402120589008988,ardrone_base_link,-0.0218011217372,-0.00785312568111,-0.904847117168,0.425105556375,1.0,0.0,0.0,0.0,1.0,0.0,0.0,0.0,100000.0,0.000662326812744,-0.00011027790606,0.000853041419759,1.0,0.0,0.0,0.0,1.0,0.0,0.0,0.0,1.0,0.185123341158,0.0406531464309,9.28226034641,0.1,0.0,0.0,0.0,0.1,0.0,0.0,0.0,0.1
1505402120591919497,17210,1505402120591776734,ardrone_base_link,-0.0218047635902,-0.00784541810238,-0.904843506224,0.4251131978,1.0,0.0,0.0,0.0,1.0,0.0,0.0,0.0,100000.0,-0.000175166889676,3.53902578354e-08,0.000266357790679,1.0,0.0,0.0,0.0,1.0,0.0,0.0,0.0,1.0,0.186453084648,0.0556619413197,9.28561965227,0.1,0.0,0.0,0.0,0.1,0.0,0.0,0.0,0.1
1505402120597399811,17211,1505402120597235418,ardrone_base_link,-0.0218084734133,-0.00783752182847,-0.904843574654,0.425113007501,1.0,0.0,0.0,0.0,1.0,0.0,0.0,0.0,100000.0,-0.000175565481186,0.000359964556992,-0.000265450682491,1.0,0.0,0.0,0.0,1.0,0.0,0.0,0.0,1.0,0.186566824839,0.0348345169798,9.28557642698,0.1,0.0,0.0,0.0,0.1,0.0,0.0,0.0,0.1
1505402120602275832,17212,1505402120600873116,ardrone_base_link,-0.0218162998118,-0.00784142390067,-0.904839664391,0.42512085679,1.0,0.0,0.0,0.0,1.0,0.0,0.0,0.0,100000.0,8.64081084728e-05,-6.60261139274e-05,-0.000144431949593,1.0,0.0,0.0,0.0,1.0,0.0,0.0,0.0,1.0,0.186076816544,0.0723522373475,9.28422242403,0.1,0.0,0.0,0.0,0.1,0.0,0.0,0.0,0.1
1505402120608975569,17213,1505402120608790621,ardrone_base_link,-0.0218199418442,-0.00783371663601,-0.904836053212,0.425128498021,1.0,0.0,0.0,0.0,1.0,0.0,0.0,0.0,100000.0,0.000478092581034,-0.000183939002454,0.000962580554187,1.0,0.0,0.0,0.0,1.0,0.0,0.0,0.0,1.0,0.186531466991,0.0548705927096,9.28568156958,0.1,0.0,0.0,0.0,0.1,0.0,0.0,0.0,0.1
1505402120611105862,17214,1505402120610952864,ardrone_base_link,-0.0218235830786,-0.00782601210505,-0.904832385291,0.425136259669,1.0,0.0,0.0,0.0,1.0,0.0,0.0,0.0,100000.0,0.00106166675687,-0.000438979826868,0.00137155828997,1.0,0.0,0.0,0.0,1.0,0.0,0.0,0.0,1.0,0.185720591247,0.0449219357222,9.28401155472,0.1,0.0,0.0,0.0,0.1,0.0,0.0,0.0,0.1
1505402120615966565,17215,1505402120615851573,ardrone_base_link,-0.0218272253789,-0.00781830496695,-0.904828773844,0.425143900773,1.0,0.0,0.0,0.0,1.0,0.0,0.0,0.0,100000.0,0.000821553228889,0.000116684474051,0.00173100759275,1.0,0.0,0.0,0.0,1.0,0.0,0.0,0.0,1.0,0.185880659893,0.0356204829644,9.28513658047,0.1,0.0,0.0,0.0,0.1,0.0,0.0,0.0,0.1
1505402120623465335,17216,1505402120623218636,ardrone_base_link,-0.0218309355252,-0.00781040870394,-0.904828842038,0.425143710275,1.0,0.0,0.0,0.0,1.0,0.0,0.0,0.0,100000.0,0.00142556428909,0.000466544181108,0.00013040471822,1.0,0.0,0.0,0.0,1.0,0.0,0.0,0.0,1.0,0.185686803237,0.0315022223629,9.27017771006,0.1,0.0,0.0,0.0,0.1,0.0,0.0,0.0,0.1
1505402120629235706,17217,1505402120629110262,ardrone_base_link,-0.0218387620272,-0.00781431125448,-0.90482493157,0.425151559121,1.0,0.0,0.0,0.0,1.0,0.0,0.0,0.0,100000.0,0.000671271292958,0.000190042890608,5.0735194236e-05,1.0,0.0,0.0,0.0,1.0,0.0,0.0,0.0,1.0,0.18528390266,0.0772975672036,9.26610109806,0.1,0.0,0.0,0.0,0.1,0.0,0.0,0.0,0.1
1505402120631744350,17218,1505402120631576350,ardrone_base_link,-0.0218387620272,-0.00781431125448,-0.90482493157,0.425151559121,1.0,0.0,0.0,0.0,1.0,0.0,0.0,0.0,100000.0,0.00136867910624,-0.00110993732233,-0.00073228450492,1.0,0.0,0.0,0.0,1.0,0.0,0.0,0.0,1.0,0.185425735638,0.100833179988,9.25093661547,0.1,0.0,0.0,0.0,0.1,0.0,0.0,0.0,0.1
1505402120636113486,17219,1505402120635955983,ardrone_base_link,-0.0218428811019,-0.00782610811356,-0.904821009274,0.425159478024,1.0,0.0,0.0,0.0,1.0,0.0,0.0,0.0,100000.0,0.000526774674654,-0.00205861218274,0.000327045214362,1.0,0.0,0.0,0.0,1.0,0.0,0.0,0.0,1.0,0.185168848187,0.127969397232,9.26805324554,0.1,0.0,0.0,0.0,0.1,0.0,0.0,0.0,0.1
1505402120644600106,17220,1505402120644361266,ardrone_base_link,-0.0218507073988,-0.00783001090409,-0.904817098499,0.425167326801,1.0,0.0,0.0,0.0,1.0,0.0,0.0,0.0,100000.0,0.000973541289568,-0.00241466332227,0.000972774578258,1.0,0.0,0.0,0.0,1.0,0.0,0.0,0.0,1.0,0.185369933397,0.123701484129,9.27913585901,0.1,0.0,0.0,0.0,0.1,0.0,0.0,0.0,0.1
1505402120646083253,17221,1505402120645973954,ardrone_base_link,-0.0218507073988,-0.00783001090409,-0.904817098499,0.425167326801,1.0,0.0,0.0,0.0,1.0,0.0,0.0,0.0,100000.0,0.000535428524017,-0.0013821432367,0.000333240488544,1.0,0.0,0.0,0.0,1.0,0.0,0.0,0.0,1.0,0.185367907211,0.11402979847,9.29125646353,0.1,0.0,0.0,0.0,0.1,0.0,0.0,0.0,0.1
1505402120651502411,17222,1505402120651176309,ardrone_base_link,-0.0218585346703,-0.00783391092155,-0.904813244202,0.425175055028,1.0,0.0,0.0,0.0,1.0,0.0,0.0,0.0,100000.0,0.00017174705863,-0.000493622384965,0.000514009734616,1.0,0.0,0.0,0.0,1.0,0.0,0.0,0.0,1.0,0.185132486373,0.107619185187,9.29729048014,0.1,0.0,0.0,0.0,0.1,0.0,0.0,0.0,0.1
1505402120656619310,17223,1505402120656413619,ardrone_base_link,-0.0218548243609,-0.00784180681311,-0.904813175805,0.425175245761,1.0,0.0,0.0,0.0,1.0,0.0,0.0,0.0,100000.0,5.19566237926e-05,0.000177857466042,-0.00108394806739,1.0,0.0,0.0,0.0,1.0,0.0,0.0,0.0,1.0,0.184948705882,0.109874302149,9.27856166363,0.1,0.0,0.0,0.0,0.1,0.0,0.0,0.0,0.1
1505402120664128177,17224,1505402120663877133,ardrone_base_link,-0.0218584658216,-0.00783410302368,-0.904809507541,0.425183006909,1.0,0.0,0.0,0.0,1.0,0.0,0.0,0.0,100000.0,-0.00103644281626,0.000183701515198,-1.7649072106e-05,1.0,0.0,0.0,0.0,1.0,0.0,0.0,0.0,1.0,0.184625867009,0.112402826361,9.28654782772,0.1,0.0,0.0,0.0,0.1,0.0,0.0,0.0,0.1
1505402120669697364,17225,1505402120669522069,ardrone_base_link,-0.0218584658216,-0.00783410302368,-0.904809507541,0.425183006909,1.0,0.0,0.0,0.0,1.0,0.0,0.0,0.0,100000.0,-0.000554144382477,2.95471400023e-05,-7.21950782463e-05,1.0,0.0,0.0,0.0,1.0,0.0,0.0,0.0,1.0,0.184665386751,0.118408978358,9.27637002468,0.1,0.0,0.0,0.0,0.1,0.0,0.0,0.0,0.1
1505402120676030083,17226,1505402120675854634,ardrone_base_link,-0.0218583980144,-0.00783429221459,-0.904805827428,0.425190838275,1.0,0.0,0.0,0.0,1.0,0.0,0.0,0.0,100000.0,-0.000920955091715,-7.22641125321e-05,0.000415309041273,1.0,0.0,0.0,0.0,1.0,0.0,0.0,0.0,1.0,0.184956536815,0.113826696202,9.28823244572,0.1,0.0,0.0,0.0,0.1,0.0,0.0,0.0,0.1
