%time,field.header.seq,field.header.stamp,field.header.frame_id,field.orientation.x,field.orientation.y,field.orientation.z,field.orientation.w,field.orientation_covariance0,field.orientation_covariance1,field.orientation_covariance2,field.orientation_covariance3,field.orientation_covariance4,field.orientation_covariance5,field.orientation_covariance6,field.orientation_covariance7,field.orientation_covariance8,field.angular_velocity.x,field.angular_velocity.y,field.angular_velocity.z,field.angular_velocity_covariance0,field.angular_velocity_covariance1,field.angular_velocity_covariance2,field.angular_velocity_covariance3,field.angular_velocity_covariance4,field.angular_velocity_covariance5,field.angular_velocity_covariance6,field.angular_velocity_covariance7,field.angular_velocity_covariance8,field.linear_acceleration.x,field.linear_acceleration.y,field.linear_acceleration.z,field.linear_acceleration_covariance0,field.linear_acceleration_covariance1,field.linear_acceleration_covariance2,field.linear_acceleration_covariance3,field.linear_acceleration_covariance4,field.linear_acceleration_covariance5,field.linear_acceleration_covariance6,field.linear_acceleration_covariance7,field.linear_acceleration_covariance8
1505356812449671580,11183,1505356812449490310,-0.0345587807127,-0.0474244420437,-0.394447053561,0.917043147791,1.0,0.0,0.0,0.0,1.0,0.0,0.0,0.0,100000.0,-0.000333048403263,0.00133533962071,0.00109939137474,1.0,0.0,0.0,0.0,1.0,0.0,0.0,0.0,1.0,0.812887106836,-0.116939099506,9.29004615545,0.1,0.0,0.0,0.0,0.1,0.0,0.0,0.0,0.1
1505356812454326803,11184,1505356812454129297,-0.0345591943408,-0.047424140625,-0.39445505187,0.917039707443,1.0,0.0,0.0,0.0,1.0,0.0,0.0,0.0,100000.0,-0.000635053962469,0.000822853296995,-0.000140838790685,1.0,0.0,0.0,0.0,1.0,0.0,0.0,0.0,1.0,0.814734914899,-0.114829758368,9.30502371788,0.1,0.0,0.0,0.0,0.1,0.0,0.0,0.0,0.1
1505356812464908424,11185,1505356812464692628,-0.0345641799485,-0.0474123898762,-0.394463556144,0.917036469081,1.0,0.0,0.0,0.0,1.0,0.0,0.0,0.0,100000.0,-0.00163926184177,0.0010033249855,5.81773965678e-05,1.0,0.0,0.0,0.0,1.0,0.0,0.0,0.0,1.0,0.814304487407,-0.115332927741,9.32340322733,0.1,0.0,0.0,0.0,0.1,0.0,0.0,0.0,0.1
1505356812464916243,11186,1505356812464717354,-0.0345725964756,-0.0474086458303,-0.394471968147,0.917032726907,1.0,0.0,0.0,0.0,1.0,0.0,0.0,0.0,100000.0,-0.00172246992588,0.0011563450098,0.000477286288515,1.0,0.0,0.0,0.0,1.0,0.0,0.0,0.0,1.0,0.815276180208,-0.114410748705,9.35745424032,0.1,0.0,0.0,0.0,0.1,0.0,0.0,0.0,0.1
1505356812469669260,11187,1505356812469315708,-0.0345725964756,-0.0474086458303,-0.394471968147,0.917032726907,1.0,0.0,0.0,0.0,1.0,0.0,0.0,0.0,100000.0,-0.00128959491849,0.000548101961613,0.000694355927408,1.0,0.0,0.0,0.0,1.0,0.0,0.0,0.0,1.0,0.813138061762,-0.098326889053,9.37349432707,0.1,0.0,0.0,0.0,0.1,0.0,0.0,0.0,0.1
1505356812474510103,11188,1505356812474335048,-0.0345725964756,-0.0474086458303,-0.394471968147,0.917032726907,1.0,0.0,0.0,0.0,1.0,0.0,0.0,0.0,100000.0,-0.000763412564993,4.30271029472e-07,0.00223477836698,1.0,0.0,0.0,0.0,1.0,0.0,0.0,0.0,1.0,0.813925535977,-0.0799812041223,9.37885835171,0.1,0.0,0.0,0.0,0.1,0.0,0.0,0.0,0.1
1505356812479615677,11189,1505356812479433359,-0.0345650069919,-0.047411786941,-0.394479552614,0.917029588029,1.0,0.0,0.0,0.0,1.0,0.0,0.0,0.0,100000.0,-0.000506546348333,-0.00107427686453,0.000434725545347,1.0,0.0,0.0,0.0,1.0,0.0,0.0,0.0,1.0,0.814262211323,-0.0449218216352,9.37202057838,0.1,0.0,0.0,0.0,0.1,0.0,0.0,0.0,0.1
1505356812485045320,11190,1505356812484909874,-0.034557418517,-0.0474149277736,-0.394487137076,0.917026448981,1.0,0.0,0.0,0.0,1.0,0.0,0.0,0.0,100000.0,-0.00136426091194,-0.000969044864178,0.000819931796286,1.0,0.0,0.0,0.0,1.0,0.0,0.0,0.0,1.0,0.813826599717,-0.0290266664699,9.35914353132,0.1,0.0,0.0,0.0,0.1,0.0,0.0,0.0,0.1
1505356812489699356,11191,1505356812489380969,-0.034549829143,-0.047418069149,-0.394494721434,0.917023309838,1.0,0.0,0.0,0.0,1.0,0.0,0.0,0.0,100000.0,-0.00186847895384,-0.000483365729451,-0.00103991804644,1.0,0.0,0.0,0.0,1.0,0.0,0.0,0.0,1.0,0.814060176909,-0.023402203992,9.36525874138,0.1,0.0,0.0,0.0,0.1,0.0,0.0,0.0,0.1
1505356812498246949,11192,1505356812498034226,-0.034550244294,-0.0474177666582,-0.394502750096,0.917019855941,1.0,0.0,0.0,0.0,1.0,0.0,0.0,0.0,100000.0,-0.00208691507578,0.000283654779196,-0.000553607125767,1.0,0.0,0.0,0.0,1.0,0.0,0.0,0.0,1.0,0.812923760712,-0.0300670921337,9.36320612431,0.1,0.0,0.0,0.0,0.1,0.0,0.0,0.0,0.1
1505356812499523928,11193,1505356812499382519,-0.034539225425,-0.0474129007694,-0.394510426816,0.917017220057,1.0,0.0,0.0,0.0,1.0,0.0,0.0,0.0,100000.0,-0.00159666314721,0.000672150403261,-0.000397695286665,1.0,0.0,0.0,0.0,1.0,0.0,0.0,0.0,1.0,0.812742097676,-0.0434863559902,9.35648283958,0.1,0.0,0.0,0.0,0.1,0.0,0.0,0.0,0.1
1505356812504439019,11194,1505356812504273942,-0.0345316361138,-0.0474160425068,-0.394518011111,0.917014080551,1.0,0.0,0.0,0.0,1.0,0.0,0.0,0.0,100000.0,-0.000553797930479,0.000478763162391,-0.00025904038921,1.0,0.0,0.0,0.0,1.0,0.0,0.0,0.0,1.0,0.812564523518,-0.0376548666507,9.33441866636,0.1,0.0,0.0,0.0,0.1,0.0,0.0,0.0,0.1
1505356812511943508,11195,1505356812511707426,-0.0345240468574,-0.0474191843765,-0.394525595351,0.917010940913,1.0,0.0,0.0,0.0,1.0,0.0,0.0,0.0,100000.0,-0.00037452208926,7.67949968576e-05,1.77030451596e-05,1.0,0.0,0.0,0.0,1.0,0.0,0.0,0.0,1.0,0.812455438077,-0.0405898874626,9.29808489084,0.1,0.0,0.0,0.0,0.1,0.0,0.0,0.0,0.1
1505356812516125647,11196,1505356812515952103,-0.0345164586098,-0.0474223259681,-0.394533179585,0.917007801107,1.0,0.0,0.0,0.0,1.0,0.0,0.0,0.0,100000.0,7.67409801483e-06,0.000113137066364,-0.000157334841788,1.0,0.0,0.0,0.0,1.0,0.0,0.0,0.0,1.0,0.812955449522,-0.032751399884,9.28318384886,0.1,0.0,0.0,0.0,0.1,0.0,0.0,0.0,0.1
1505356812519572863,11197,1505356812519382533,-0.0345168722195,-0.0474220249185,-0.394541177585,0.917004360008,1.0,0.0,0.0,0.0,1.0,0.0,0.0,0.0,100000.0,-0.000636782497168,-0.000150430947542,8.48571071401e-05,1.0,0.0,0.0,0.0,1.0,0.0,0.0,0.0,1.0,0.813188953698,-0.0516282032244,9.2762742281,0.1,0.0,0.0,0.0,0.1,0.0,0.0,0.0,0.1
1505356812524506051,11198,1505356812524371554,-0.034508869463,-0.0474254681026,-0.394540763715,0.917004661204,1.0,0.0,0.0,0.0,1.0,0.0,0.0,0.0,100000.0,-0.00085511431098,0.000135889276862,0.000208476616535,1.0,0.0,0.0,0.0,1.0,0.0,0.0,0.0,1.0,0.813735476136,-0.0725268315524,9.28566755056,0.1,0.0,0.0,0.0,0.1,0.0,0.0,0.0,0.1
1505356812536874816,11199,1505356812536658325,-0.0345172858265,-0.0474217238653,-0.394549175556,0.91700091884,1.0,0.0,0.0,0.0,1.0,0.0,0.0,0.0,100000.0,-0.00109130889177,0.000217044740566,0.000295380537864,1.0,0.0,0.0,0.0,1.0,0.0,0.0,0.0,1.0,0.814168970287,-0.105385717377,9.29788395166,0.1,0.0,0.0,0.0,0.1,0.0,0.0,0.0,0.1
1505356812536885833,11200,1505356812536696822,-0.0345257027493,-0.0474179787424,-0.394557617808,0.91699716323,1.0,0.0,0.0,0.0,1.0,0.0,0.0,0.0,100000.0,-0.00125446915627,0.000289861112833,-0.000304843124468,1.0,0.0,0.0,0.0,1.0,0.0,0.0,0.0,1.0,0.814338731766,-0.123484052531,9.29117059708,0.1,0.0,0.0,0.0,0.1,0.0,0.0,0.0,0.1
1505356812539699810,11201,1505356812539569168,-0.0345257027493,-0.0474179787424,-0.394557617808,0.91699716323,1.0,0.0,0.0,0.0,1.0,0.0,0.0,0.0,100000.0,-0.00105508044362,0.00122891378123,0.000497372762766,1.0,0.0,0.0,0.0,1.0,0.0,0.0,0.0,1.0,0.814487099648,-0.126328342222,9.29381201267,0.1,0.0,0.0,0.0,0.1,0.0,0.0,0.0,0.1
1505356812544897552,11202,1505356812544720523,-0.034534118982,-0.0474142342112,-0.394566029518,0.916993420571,1.0,0.0,0.0,0.0,1.0,0.0,0.0,0.0,100000.0,-0.00126802548766,0.000740991905332,0.00010851706611,1.0,0.0,0.0,0.0,1.0,0.0,0.0,0.0,1.0,0.814356766641,-0.120452778786,9.28476332426,0.1,0.0,0.0,0.0,0.1,0.0,0.0,0.0,0.1
1505356812550005549,11203,1505356812549697167,-0.0345386906175,-0.0474027839601,-0.394566535685,0.916993622574,1.0,0.0,0.0,0.0,1.0,0.0,0.0,0.0,100000.0,-0.00122444331646,0.00172319449484,0.00145566649735,1.0,0.0,0.0,0.0,1.0,0.0,0.0,0.0,1.0,0.814281487465,-0.107980658486,9.28925174475,0.1,0.0,0.0,0.0,0.1,0.0,0.0,0.0,0.1
1505356812554714096,11204,1505356812554589329,-0.0345391040567,-0.0474024827166,-0.394574533562,0.916990181184,1.0,0.0,0.0,0.0,1.0,0.0,0.0,0.0,100000.0,-0.00147690996528,0.000629086047411,0.00105267739855,1.0,0.0,0.0,0.0,1.0,0.0,0.0,0.0,1.0,0.81428207159,-0.113241119497,9.29133298397,0.1,0.0,0.0,0.0,0.1,0.0,0.0,0.0,0.1
1505356812563734067,11205,1505356812563497143,-0.0345471057328,-0.0473990396483,-0.394574947182,0.91698987976,1.0,0.0,0.0,0.0,1.0,0.0,0.0,0.0,100000.0,-0.00177820399404,0.00123181566596,0.000887254718691,1.0,0.0,0.0,0.0,1.0,0.0,0.0,0.0,1.0,0.814291344583,-0.111719226092,9.28992640972,0.1,0.0,0.0,0.0,0.1,0.0,0.0,0.0,0.1
1505356812564566716,11206,1505356812564354250,-0.0345520905804,-0.0473872879873,-0.394583450897,0.916986640171,1.0,0.0,0.0,0.0,1.0,0.0,0.0,0.0,100000.0,-0.00120149925351,0.000972170382738,0.000939406454563,1.0,0.0,0.0,0.0,1.0,0.0,0.0,0.0,1.0,0.814424817264,-0.118787610345,9.29173018932,0.1,0.0,0.0,0.0,0.1,0.0,0.0,0.0,0.1
1505356812571582873,11207,1505356812571166824,-0.0345520905804,-0.0473872879873,-0.394583450897,0.916986640171,1.0,0.0,0.0,0.0,1.0,0.0,0.0,0.0,100000.0,-0.00100409984589,0.001090740785,0.000217273365706,1.0,0.0,0.0,0.0,1.0,0.0,0.0,0.0,1.0,0.814459207654,-0.115207550675,9.28873479366,0.1,0.0,0.0,0.0,0.1,0.0,0.0,0.0,0.1
1505356812579148710,11208,1505356812578920300,-0.0345525038845,-0.0473869866269,-0.394591448713,0.916983198633,1.0,0.0,0.0,0.0,1.0,0.0,0.0,0.0,100000.0,0.000150721520185,0.0013863388449,0.00108153279871,1.0,0.0,0.0,0.0,1.0,0.0,0.0,0.0,1.0,0.814473737776,-0.113021460921,9.28978271484,0.1,0.0,0.0,0.0,0.1,0.0,0.0,0.0,0.1
1505356812579849241,11209,1505356812579634934,-0.0345609187711,-0.0473832419773,-0.394599859981,0.916979455482,1.0,0.0,0.0,0.0,1.0,0.0,0.0,0.0,100000.0,-0.00029082223773,0.000874325633049,0.000191948842257,1.0,0.0,0.0,0.0,1.0,0.0,0.0,0.0,1.0,0.814422334731,-0.113818390667,9.30532979965,0.1,0.0,0.0,0.0,0.1,0.0,0.0,0.0,0.1
1505356812585406486,11210,1505356812585146198,-0.0345574858405,-0.0473752314225,-0.394599952169,0.916979959088,1.0,0.0,0.0,0.0,1.0,0.0,0.0,0.0,100000.0,-0.000793151615653,0.00121226534247,-0.00019491976127,1.0,0.0,0.0,0.0,1.0,0.0,0.0,0.0,1.0,0.814269804955,-0.0975082280114,9.32303931713,0.1,0.0,0.0,0.0,0.1,0.0,0.0,0.0,0.1
1505356812590059677,11211,1505356812589809517,-0.0345578990394,-0.0473749300151,-0.394607949926,0.916976517407,1.0,0.0,0.0,0.0,1.0,0.0,0.0,0.0,100000.0,-0.00177361816168,0.00104478001595,-0.000904965912923,1.0,0.0,0.0,0.0,1.0,0.0,0.0,0.0,1.0,0.814121437073,-0.0814606389031,9.34295566082,0.1,0.0,0.0,0.0,0.1,0.0,0.0,0.0,0.1
1505356812597351884,11212,1505356812597128386,-0.0345587270064,-0.047374326039,-0.394623975877,0.916969620698,1.0,0.0,0.0,0.0,1.0,0.0,0.0,0.0,100000.0,-0.00214973837137,0.000893892720342,-0.00165801681578,1.0,0.0,0.0,0.0,1.0,0.0,0.0,0.0,1.0,0.813921812177,-0.0470437762327,9.33954378366,0.1,0.0,0.0,0.0,0.1,0.0,0.0,0.0,0.1
1505356812599791730,11213,1505356812599578682,-0.0345477071471,-0.0473694615671,-0.394631652343,0.916966983599,1.0,0.0,0.0,0.0,1.0,0.0,0.0,0.0,100000.0,-0.00172304734588,0.000527190044522,-0.000874829012901,1.0,0.0,0.0,0.0,1.0,0.0,0.0,0.0,1.0,0.813798269629,-0.0310245445929,9.31113892794,0.1,0.0,0.0,0.0,0.1,0.0,0.0,0.0,0.1
1505356812605006682,11214,1505356812604767470,-0.0345401178955,-0.0473726042884,-0.394639236579,0.91696384311,1.0,0.0,0.0,0.0,1.0,0.0,0.0,0.0,100000.0,-0.00150661915541,4.42937016487e-05,-0.00102040311322,1.0,0.0,0.0,0.0,1.0,0.0,0.0,0.0,1.0,0.813707949221,-0.0263868321199,9.28850523233,0.1,0.0,0.0,0.0,0.1,0.0,0.0,0.0,0.1
1505356812611607572,11215,1505356812611257377,-0.0345359613819,-0.0473837532896,-0.39464672846,0.916960199252,1.0,0.0,0.0,0.0,1.0,0.0,0.0,0.0,100000.0,-0.00175662711263,-0.000402439385653,0.000431623775512,1.0,0.0,0.0,0.0,1.0,0.0,0.0,0.0,1.0,0.813615511358,-0.0322096554097,9.28497360945,0.1,0.0,0.0,0.0,0.1,0.0,0.0,0.0,0.1
1505356812615048563,11216,1505356812614820908,-0.0345363746552,-0.0473834520699,-0.394654726045,0.916956757163,1.0,0.0,0.0,0.0,1.0,0.0,0.0,0.0,100000.0,-0.00201959162951,-0.000556686893106,0.000875234138221,1.0,0.0,0.0,0.0,1.0,0.0,0.0,0.0,1.0,0.813496349752,-0.0449548612349,9.31662269831,0.1,0.0,0.0,0.0,0.1,0.0,0.0,0.0,0.1
1505356812620091737,11217,1505356812619882998,-0.0345363746552,-0.0473834520699,-0.394654726045,0.916956757163,1.0,0.0,0.0,0.0,1.0,0.0,0.0,0.0,100000.0,-0.0024878308177,-0.0010784342885,0.00132432160899,1.0,0.0,0.0,0.0,1.0,0.0,0.0,0.0,1.0,0.813260436058,-0.0375322915614,9.36105303764,0.1,0.0,0.0,0.0,0.1,0.0,0.0,0.0,0.1
1505356812624957149,11218,1505356812624813092,-0.0345367879258,-0.0473831508466,-0.3946627236,0.916953315004,1.0,0.0,0.0,0.0,1.0,0.0,0.0,0.0,100000.0,-0.00197552144527,-0.00126369297504,0.00108653726056,1.0,0.0,0.0,0.0,1.0,0.0,0.0,0.0,1.0,0.813078188896,-0.0541594062001,9.36438781023,0.1,0.0,0.0,0.0,0.1,0.0,0.0,0.0,0.1
1505356812632223196,11219,1505356812631910932,-0.0345287856148,-0.0473865950914,-0.394662310069,0.916953616374,1.0,0.0,0.0,0.0,1.0,0.0,0.0,0.0,100000.0,-0.00135218352079,-0.000710939988494,-0.00017821835354,1.0,0.0,0.0,0.0,1.0,0.0,0.0,0.0,1.0,0.812870897353,-0.0646374360658,9.34999904633,0.1,0.0,0.0,0.0,0.1,0.0,0.0,0.0,0.1
1505356812639113868,11220,1505356812638837124,-0.0345372027711,-0.04738284847,-0.39467075165,0.916949859637,1.0,0.0,0.0,0.0,1.0,0.0,0.0,0.0,100000.0,-0.00134424865246,3.07131558657e-05,7.57840462029e-05,1.0,0.0,0.0,0.0,1.0,0.0,0.0,0.0,1.0,0.812762834132,-0.10264894329,9.31386620998,0.1,0.0,0.0,0.0,0.1,0.0,0.0,0.0,0.1
1505356812642168552,11221,1505356812641999090,-0.0345376160365,-0.0473825472395,-0.394678749145,0.916946417338,1.0,0.0,0.0,0.0,1.0,0.0,0.0,0.0,100000.0,-0.000437080889242,0.00160086341202,0.000142267439514,1.0,0.0,0.0,0.0,1.0,0.0,0.0,0.0,1.0,0.812682516873,-0.121753379889,9.29347205162,0.1,0.0,0.0,0.0,0.1,0.0,0.0,0.0,0.1
1505356812645162802,11222,1505356812644939002,-0.0345421853261,-0.0473710968228,-0.394679254888,0.916946619155,1.0,0.0,0.0,0.0,1.0,0.0,0.0,0.0,100000.0,-0.00102526322007,0.00174076668918,0.00195528776385,1.0,0.0,0.0,0.0,1.0,0.0,0.0,0.0,1.0,0.812699383497,-0.125805193931,9.31051216125,0.1,0.0,0.0,0.0,0.1,0.0,0.0,0.0,0.1
1505356812651795996,11223,1505356812651631090,-0.034550187576,-0.0473676524301,-0.394679668284,0.916946317668,1.0,0.0,0.0,0.0,1.0,0.0,0.0,0.0,100000.0,-0.000339459627867,0.00101418048143,0.00256267469376,1.0,0.0,0.0,0.0,1.0,0.0,0.0,0.0,1.0,0.812984801829,-0.121177523397,9.29855394363,0.1,0.0,0.0,0.0,0.1,0.0,0.0,0.0,0.1
1505356812655132746,11224,1505356812654980065,-0.034550187576,-0.0473676524301,-0.394679668284,0.916946317668,1.0,0.0,0.0,0.0,1.0,0.0,0.0,0.0,100000.0,-0.000946272164583,4.65605407953e-05,0.0028142137453,1.0,0.0,0.0,0.0,1.0,0.0,0.0,0.0,1.0,0.81349503547,-0.106016134843,9.30957405567,0.1,0.0,0.0,0.0,0.1,0.0,0.0,0.0,0.1
1505356812665306476,11225,1505356812665105731,-0.0345581888694,-0.0473642084444,-0.3946800816,0.916946016148,1.0,0.0,0.0,0.0,1.0,0.0,0.0,0.0,100000.0,-0.00123390555382,-0.00145874358714,0.00215026922524,1.0,0.0,0.0,0.0,1.0,0.0,0.0,0.0,1.0,0.814238408208,-0.113657025993,9.28438481092,0.1,0.0,0.0,0.0,0.1,0.0,0.0,0.0,0.1
1505356812665314588,11226,1505356812665133692,-0.0345620340379,-0.0473719134416,-0.3946879869,0.916942070481,1.0,0.0,0.0,0.0,1.0,0.0,0.0,0.0,100000.0,-0.000927347689867,-0.000528881326318,0.000754243694246,1.0,0.0,0.0,0.0,1.0,0.0,0.0,0.0,1.0,0.814851886034,-0.112678460591,9.27938469648,0.1,0.0,0.0,0.0,0.1,0.0,0.0,0.0,0.1
1505356812670681905,11227,1505356812670526950,-0.0345700362481,-0.0473684689727,-0.394688400302,0.916941768821,1.0,0.0,0.0,0.0,1.0,0.0,0.0,0.0,100000.0,-0.00124573707581,-0.00046711973846,0.000792177394032,1.0,0.0,0.0,0.0,1.0,0.0,0.0,0.0,1.0,0.815138472617,-0.120265968144,9.29123718739,0.1,0.0,0.0,0.0,0.1,0.0,0.0,0.0,0.1
1505356812677136199,11228,1505356812676926572,-0.034570449388,-0.0473681674558,-0.394696397727,0.916938326368,1.0,0.0,0.0,0.0,1.0,0.0,0.0,0.0,100000.0,-0.000576287508011,0.000848822295666,-0.000334982760251,1.0,0.0,0.0,0.0,1.0,0.0,0.0,0.0,1.0,0.814995069802,-0.117451149411,9.2854280591,0.1,0.0,0.0,0.0,0.1,0.0,0.0,0.0,0.1
1505356812682858471,11229,1505356812682690267,-0.0345750194389,-0.0473567165312,-0.394696903123,0.916938527981,1.0,0.0,0.0,0.0,1.0,0.0,0.0,0.0,100000.0,-0.00125535577536,0.00109837017953,0.000695457682014,1.0,0.0,0.0,0.0,1.0,0.0,0.0,0.0,1.0,0.814527769387,-0.113853620738,9.30123332739,0.1,0.0,0.0,0.0,0.1,0.0,0.0,0.0,0.1
1505356812685514007,11230,1505356812685399219,-0.0345834336717,-0.047352970765,-0.394705313737,0.916934783713,1.0,0.0,0.0,0.0,1.0,0.0,0.0,0.0,100000.0,-0.00146102905273,0.000878160819411,0.000154335066327,1.0,0.0,0.0,0.0,1.0,0.0,0.0,0.0,1.0,0.814028050005,-0.11523333434,9.2863229394,0.1,0.0,0.0,0.0,0.1,0.0,0.0,0.0,0.1
1505356812690349486,11231,1505356812690145830,-0.0345838466764,-0.0473526691313,-0.394713311101,0.916931341113,1.0,0.0,0.0,0.0,1.0,0.0,0.0,0.0,100000.0,-0.00126040354371,0.000973416492343,5.00800088048e-05,1.0,0.0,0.0,0.0,1.0,0.0,0.0,0.0,1.0,0.813665089011,-0.113549227454,9.28904087543,0.1,0.0,0.0,0.0,0.1,0.0,0.0,0.0,0.1
1505356812695390164,11232,1505356812695153509,-0.0345922617651,-0.0473489227343,-0.394721721666,0.916927596589,1.0,0.0,0.0,0.0,1.0,0.0,0.0,0.0,100000.0,-0.00102476403117,-0.000207412987947,0.000108996406198,1.0,0.0,0.0,0.0,1.0,0.0,0.0,0.0,1.0,0.82883168906,-0.115594095737,9.29044277668,0.1,0.0,0.0,0.0,0.1,0.0,0.0,0.0,0.1
1505356812700292736,11233,1505356812700081151,-0.0345961087082,-0.0473566261361,-0.394729657587,0.916923637303,1.0,0.0,0.0,0.0,1.0,0.0,0.0,0.0,100000.0,0.000260028988123,-0.000426942482591,-0.000813880702481,1.0,0.0,0.0,0.0,1.0,0.0,0.0,0.0,1.0,0.847672365606,-0.114916537516,9.28773009777,0.1,0.0,0.0,0.0,0.1,0.0,0.0,0.0,0.1
1505356812707668075,11234,1505356812707393377,-0.0345995427399,-0.0473646362145,-0.394729565609,0.91692313359,1.0,0.0,0.0,0.0,1.0,0.0,0.0,0.0,100000.0,-4.91850078106e-05,-0.000946713669691,0.000929516798351,1.0,0.0,0.0,0.0,1.0,0.0,0.0,0.0,1.0,0.882561087608,-0.11362552885,9.29397907257,0.1,0.0,0.0,0.0,0.1,0.0,0.0,0.0,0.1
1505356812711280712,11235,1505356812710672206,-0.0346068207679,-0.0473803468906,-0.394737378903,0.916918683625,1.0,0.0,0.0,0.0,1.0,0.0,0.0,0.0,100000.0,-0.000310156523483,-0.000943837687373,0.000547861971427,1.0,0.0,0.0,0.0,1.0,0.0,0.0,0.0,1.0,0.899139373004,-0.114220232517,9.28958177567,0.1,0.0,0.0,0.0,0.1,0.0,0.0,0.0,0.1
1505356812715506431,11236,1505356812715293611,-0.0346216867223,-0.0473929148389,-0.394737608382,0.916917374119,1.0,0.0,0.0,0.0,1.0,0.0,0.0,0.0,100000.0,-0.0014366991818,-6.40787184238e-05,0.00187060097232,1.0,0.0,0.0,0.0,1.0,0.0,0.0,0.0,1.0,0.904646581411,-0.113611272536,9.29056719542,0.1,0.0,0.0,0.0,0.1,0.0,0.0,0.0,0.1
1505356812720615066,11237,1505356812720507060,-0.0346331211597,-0.0473974761511,-0.394737930019,0.916916568057,1.0,0.0,0.0,0.0,1.0,0.0,0.0,0.0,100000.0,-0.00254818797112,-0.000626532360911,0.0012083920883,1.0,0.0,0.0,0.0,1.0,0.0,0.0,0.0,1.0,0.897672487795,-0.114684092067,9.29100762606,0.1,0.0,0.0,0.0,0.1,0.0,0.0,0.0,0.1
1505356812725462729,11238,1505356812725219265,-0.0346449690157,-0.0474017352908,-0.394746248933,0.916912318909,1.0,0.0,0.0,0.0,1.0,0.0,0.0,0.0,100000.0,-0.00193243846297,0.000133154913783,0.000623774249107,1.0,0.0,0.0,0.0,1.0,0.0,0.0,0.0,1.0,0.869095169008,-0.115029520169,9.28927043676,0.1,0.0,0.0,0.0,0.1,0.0,0.0,0.0,0.1
1505356812730878555,11239,1505356812730694734,-0.0346564041478,-0.0474063007207,-0.394746570628,0.916911512241,1.0,0.0,0.0,0.0,1.0,0.0,0.0,0.0,100000.0,-0.00191441550851,-0.000546649098396,0.000378711614758,1.0,0.0,0.0,0.0,1.0,0.0,0.0,0.0,1.0,0.856427969038,-0.114838346839,9.29147667885,0.1,0.0,0.0,0.0,0.1,0.0,0.0,0.0,0.1
1505356812741229145,11240,1505356812741010673,-0.0346568176177,-0.0474059984505,-0.394754567789,0.916908069281,1.0,0.0,0.0,0.0,1.0,0.0,0.0,0.0,100000.0,-0.000300034880638,0.000360632315278,-0.000459475442767,1.0,0.0,0.0,0.0,1.0,0.0,0.0,0.0,1.0,0.819521166384,-0.115101860464,9.2897108674,0.1,0.0,0.0,0.0,0.1,0.0,0.0,0.0,0.1
1505356812741347697,11241,1505356812741042070,-0.0346572310849,-0.0474056961767,-0.394762564919,0.916904626252,1.0,0.0,0.0,0.0,1.0,0.0,0.0,0.0,100000.0,-0.000481519848108,0.000315867364407,0.000488530145958,1.0,0.0,0.0,0.0,1.0,0.0,0.0,0.0,1.0,0.811476005614,-0.114455169626,9.29004089832,0.1,0.0,0.0,0.0,0.1,0.0,0.0,0.0,0.1
1505356812745526854,11242,1505356812745423110,-0.0346542102046,-0.0473973839927,-0.394770653951,0.91690168747,1.0,0.0,0.0,0.0,1.0,0.0,0.0,0.0,100000.0,-0.00105776637793,0.000246426090598,3.79394041374e-05,1.0,0.0,0.0,0.0,1.0,0.0,0.0,0.0,1.0,0.802341815829,-0.099152258411,9.30511425734,0.1,0.0,0.0,0.0,0.1,0.0,0.0,0.0,0.1
1505356812751007702,11243,1505356812750738673,-0.0346542102046,-0.0473973839927,-0.394770653951,0.91690168747,1.0,0.0,0.0,0.0,1.0,0.0,0.0,0.0,100000.0,-0.00107258930802,0.000157691552886,0.000884616398253,1.0,0.0,0.0,0.0,1.0,0.0,0.0,0.0,1.0,0.8069921121,-0.0802907450125,9.3226999402,0.1,0.0,0.0,0.0,0.1,0.0,0.0,0.0,0.1
1505356812755769117,11244,1505356812755542601,-0.0346546235967,-0.0473970817417,-0.394778651026,0.9168982443,1.0,0.0,0.0,0.0,1.0,0.0,0.0,0.0,100000.0,-0.00214198604226,6.4043328166e-05,8.87654096005e-05,1.0,0.0,0.0,0.0,1.0,0.0,0.0,0.0,1.0,0.8215195328,-0.0455339349806,9.35756931305,0.1,0.0,0.0,0.0,0.1,0.0,0.0,0.0,0.1
1505356812764235279,11245,1505356812764048132,-0.0346470377176,-0.0474002232492,-0.394786264993,0.916895090284,1.0,0.0,0.0,0.0,1.0,0.0,0.0,0.0,100000.0,-0.000744882971048,0.00110334530473,2.89791496471e-05,1.0,0.0,0.0,0.0,1.0,0.0,0.0,0.0,1.0,0.813906770945,-0.0444942828268,9.37308251858,0.1,0.0,0.0,0.0,0.1,0.0,0.0,0.0,0.1
1505356812771175561,11246,1505356812770691533,-0.0346440182098,-0.0473919150591,-0.394794353951,0.916892150952,1.0,0.0,0.0,0.0,1.0,0.0,0.0,0.0,100000.0,-0.00147987157106,0.00117237505037,8.04896699265e-05,1.0,0.0,0.0,0.0,1.0,0.0,0.0,0.0,1.0,0.818923313916,-0.0574282638729,9.37878183126,0.1,0.0,0.0,0.0,0.1,0.0,0.0,0.0,0.1
1505356812771184867,11247,1505356812770727579,-0.0346444315542,-0.047391612897,-0.394802350942,0.916888707576,1.0,0.0,0.0,0.0,1.0,0.0,0.0,0.0,100000.0,-0.000896822661161,0.00153516978025,-0.000123775564134,1.0,0.0,0.0,0.0,1.0,0.0,0.0,0.0,1.0,0.809952606261,-0.0835707832128,9.37229803801,0.1,0.0,0.0,0.0,0.1,0.0,0.0,0.0,0.1
1505356812775639081,11248,1505356812775467052,-0.034640998557,-0.0473836069216,-0.394802442857,0.91688921148,1.0,0.0,0.0,0.0,1.0,0.0,0.0,0.0,100000.0,-0.000631298869848,0.000418247655034,0.000336611585226,1.0,0.0,0.0,0.0,1.0,0.0,0.0,0.0,1.0,0.813145436347,-0.109427756444,9.35932052135,0.1,0.0,0.0,0.0,0.1,0.0,0.0,0.0,0.1
1505356812780575781,11249,1505356812780445052,-0.0346414118289,-0.0473833047858,-0.394810439823,0.916885768033,1.0,0.0,0.0,0.0,1.0,0.0,0.0,0.0,100000.0,-0.000679962395225,0.000599984079599,-0.000648947083391,1.0,0.0,0.0,0.0,1.0,0.0,0.0,0.0,1.0,0.816045765579,-0.0931099453941,9.35079345703,0.1,0.0,0.0,0.0,0.1,0.0,0.0,0.0,0.1
1505356812789739243,11250,1505356812789517512,-0.0346418250983,-0.0473830026464,-0.394818436759,0.916882324516,1.0,0.0,0.0,0.0,1.0,0.0,0.0,0.0,100000.0,0.000336896628141,-0.000207034885534,-0.000999952433631,1.0,0.0,0.0,0.0,1.0,0.0,0.0,0.0,1.0,0.813992345333,-0.10689569097,9.33014578819,0.1,0.0,0.0,0.0,0.1,0.0,0.0,0.0,0.1
1505356812790805609,11251,1505356812790558896,-0.0346422383649,-0.0473827005034,-0.394826433665,0.916878880929,1.0,0.0,0.0,0.0,1.0,0.0,0.0,0.0,100000.0,-0.0009003020823,0.000398689880967,-0.00109405396506,1.0,0.0,0.0,0.0,1.0,0.0,0.0,0.0,1.0,0.816403907537,-0.0969867773354,9.30432977676,0.1,0.0,0.0,0.0,0.1,0.0,0.0,0.0,0.1
1505356812798388825,11252,1505356812798175854,-0.0346506523039,-0.0473789530206,-0.394834843986,0.916875134945,1.0,0.0,0.0,0.0,1.0,0.0,0.0,0.0,100000.0,-0.00136865314562,-0.000412007793784,-0.000895643373951,1.0,0.0,0.0,0.0,1.0,0.0,0.0,0.0,1.0,0.813392813504,-0.119387680665,9.28467220068,0.1,0.0,0.0,0.0,0.1,0.0,0.0,0.0,0.1
1505356812804653467,11253,1505356812804385275,-0.0346590687084,-0.0473752038266,-0.394843284813,0.916871375634,1.0,0.0,0.0,0.0,1.0,0.0,0.0,0.0,100000.0,-0.00241231545806,-0.000179458409548,0.000637899152935,1.0,0.0,0.0,0.0,1.0,0.0,0.0,0.0,1.0,0.813726714253,-0.12600522954,9.27685776949,0.1,0.0,0.0,0.0,0.1,0.0,0.0,0.0,0.1
1505356812806108801,11254,1505356812805816315,-0.0346670693478,-0.0473717584132,-0.394843698195,0.916871073163,1.0,0.0,0.0,0.0,1.0,0.0,0.0,0.0,100000.0,-0.00257940590382,-3.20188701153e-05,0.00103576574475,1.0,0.0,0.0,0.0,1.0,0.0,0.0,0.0,1.0,0.814214240015,-0.0988359909505,9.28478201628,0.1,0.0,0.0,0.0,0.1,0.0,0.0,0.0,0.1
1505356812811200050,11255,1505356812811002779,-0.0346670693478,-0.0473717584132,-0.394843698195,0.916871073163,1.0,0.0,0.0,0.0,1.0,0.0,0.0,0.0,100000.0,-0.00163327157497,-0.000102171674371,0.00247557880357,1.0,0.0,0.0,0.0,1.0,0.0,0.0,0.0,1.0,0.812946906686,-0.0863115457818,9.29587397575,0.1,0.0,0.0,0.0,0.1,0.0,0.0,0.0,0.1
1505356812815741816,11256,1505356812815619207,-0.034659481907,-0.0473749015332,-0.394851281623,0.916867931831,1.0,0.0,0.0,0.0,1.0,0.0,0.0,0.0,100000.0,-0.00115763023496,0.000318478792906,0.00200465600938,1.0,0.0,0.0,0.0,1.0,0.0,0.0,0.0,1.0,0.813711965084,-0.0366991209332,9.29216594696,0.1,0.0,0.0,0.0,0.1,0.0,0.0,0.0,0.1
1505356812820899175,11257,1505356812820750489,-0.0346549137532,-0.0473863532198,-0.394850776293,0.916867730342,1.0,0.0,0.0,0.0,1.0,0.0,0.0,0.0,100000.0,-0.000457998365164,-0.00093443877995,0.00204563979059,1.0,0.0,0.0,0.0,1.0,0.0,0.0,0.0,1.0,0.812640751898,-0.0340089240111,9.29348665476,0.1,0.0,0.0,0.0,0.1,0.0,0.0,0.0,0.1
1505356812825676162,11258,1505356812825519530,-0.0346473264689,-0.0473894965076,-0.394858359565,0.916864588841,1.0,0.0,0.0,0.0,1.0,0.0,0.0,0.0,100000.0,-0.000590465962887,-0.000544961541891,0.000565470196307,1.0,0.0,0.0,0.0,1.0,0.0,0.0,0.0,1.0,0.812789265811,-0.0260764150415,9.28456705809,0.1,0.0,0.0,0.0,0.1,0.0,0.0,0.0,0.1
1505356812830971404,11259,1505356812830614636,-0.0346397382856,-0.0473926403385,-0.394865942733,0.916861447244,1.0,0.0,0.0,0.0,1.0,0.0,0.0,0.0,100000.0,-0.000706471502781,-0.000807080417871,-0.000271086581051,1.0,0.0,0.0,0.0,1.0,0.0,0.0,0.0,1.0,0.813211807609,-0.0310927640647,9.28884986639,0.1,0.0,0.0,0.0,0.1,0.0,0.0,0.0,0.1
1505356812836676139,11260,1505356812836462499,-0.0346401516364,-0.0473923382137,-0.394873939457,0.916858003243,1.0,0.0,0.0,0.0,1.0,0.0,0.0,0.0,100000.0,-0.00112329050899,0.000252969563007,-0.000483261886984,1.0,0.0,0.0,0.0,1.0,0.0,0.0,0.0,1.0,0.812996776402,-0.0469376889989,9.29035691023,0.1,0.0,0.0,0.0,0.1,0.0,0.0,0.0,0.1
1505356812842855625,11261,1505356812842665662,-0.0346325635353,-0.0473954822431,-0.394881522542,0.916854861448,1.0,0.0,0.0,0.0,1.0,0.0,0.0,0.0,100000.0,-0.00129283219576,0.000570444448385,-0.000564812682569,1.0,0.0,0.0,0.0,1.0,0.0,0.0,0.0,1.0,0.813537822664,-0.0354150989559,9.28991180658,0.1,0.0,0.0,0.0,0.1,0.0,0.0,0.0,0.1
1505356812845888030,11262,1505356812845739380,-0.0346245630374,-0.0473989279866,-0.394881108953,0.916855163618,1.0,0.0,0.0,0.0,1.0,0.0,0.0,0.0,100000.0,-0.00176892802119,0.000544732436538,0.00112809706479,1.0,0.0,0.0,0.0,1.0,0.0,0.0,0.0,1.0,0.8133495152,-0.042050917726,9.29130903482,0.1,0.0,0.0,0.0,0.1,0.0,0.0,0.0,0.1
1505356812851627580,11263,1505356812850791947,-0.0346249764429,-0.0473986259942,-0.394889105622,0.916851719484,1.0,0.0,0.0,0.0,1.0,0.0,0.0,0.0,100000.0,-0.00120704621077,0.000389436259866,0.000516747648362,1.0,0.0,0.0,0.0,1.0,0.0,0.0,0.0,1.0,0.813515990973,-0.0334453318734,9.28842345476,0.1,0.0,0.0,0.0,0.1,0.0,0.0,0.0,0.1
1505356812857567588,11264,1505356812857443411,-0.0346173900296,-0.0474017691359,-0.394896719119,0.916848564278,1.0,0.0,0.0,0.0,1.0,0.0,0.0,0.0,100000.0,-0.00125423073769,-0.000322049483657,0.00135092169512,1.0,0.0,0.0,0.0,1.0,0.0,0.0,0.0,1.0,0.813888736069,-0.0516791316681,9.28955315351,0.1,0.0,0.0,0.0,0.1,0.0,0.0,0.0,0.1
1505356812864650124,11265,1505356812864378722,-0.0346173900296,-0.0474017691359,-0.394896719119,0.916848564278,1.0,0.0,0.0,0.0,1.0,0.0,0.0,0.0,100000.0,-0.000505488365889,-2.4726614356e-05,-2.21764203161e-05,1.0,0.0,0.0,0.0,1.0,0.0,0.0,0.0,1.0,0.81402220875,-0.073839274887,9.28992640972,0.1,0.0,0.0,0.0,0.1,0.0,0.0,0.0,0.1
1505356812868004154,11266,1505356812867770877,-0.0346178034599,-0.047401467206,-0.394904715731,0.916845120009,1.0,0.0,0.0,0.0,1.0,0.0,0.0,0.0,100000.0,-0.000677928328514,-0.000375071540475,5.06008509547e-05,1.0,0.0,0.0,0.0,1.0,0.0,0.0,0.0,1.0,0.814458039403,-0.104368024692,9.28983061314,0.1,0.0,0.0,0.0,0.1,0.0,0.0,0.0,0.1
1505356812871386835,11267,1505356812871204322,-0.0346262182217,-0.0473977188425,-0.39491312597,0.916841373519,1.0,0.0,0.0,0.0,1.0,0.0,0.0,0.0,100000.0,-0.00091528147459,0.000609772279859,0.000414788722992,1.0,0.0,0.0,0.0,1.0,0.0,0.0,0.0,1.0,0.814464464784,-0.123271175288,9.29070154428,0.1,0.0,0.0,0.0,0.1,0.0,0.0,0.0,0.1
1505356812876169106,11268,1505356812875953762,-0.0346307846153,-0.0473862672654,-0.394913631665,0.916841575168,1.0,0.0,0.0,0.0,1.0,0.0,0.0,0.0,100000.0,-0.00104760378599,0.000873161479831,0.000478222034872,1.0,0.0,0.0,0.0,1.0,0.0,0.0,0.0,1.0,0.814404153824,-0.125676686317,9.2897634387,0.1,0.0,0.0,0.0,0.1,0.0,0.0,0.0,0.1
1505356812881116189,11269,1505356812880952540,-0.0346311979105,-0.0473859652187,-0.394921628215,0.916838130751,1.0,0.0,0.0,0.0,1.0,0.0,0.0,0.0,100000.0,-0.00199857726693,0.00104738213122,0.00145173713099,1.0,0.0,0.0,0.0,1.0,0.0,0.0,0.0,1.0,0.81428360492,-0.119502287917,9.29006484747,0.1,0.0,0.0,0.0,0.1,0.0,0.0,0.0,0.1
1505356812886702660,11270,1505356812886263023,-0.0346391992136,-0.0473825187108,-0.394922041741,0.916837828488,1.0,0.0,0.0,0.0,1.0,0.0,0.0,0.0,100000.0,-0.00216387584805,0.00119955278933,0.000440401956439,1.0,0.0,0.0,0.0,1.0,0.0,0.0,0.0,1.0,0.8140471071,-0.107752813026,9.30500911474,0.1,0.0,0.0,0.0,0.1,0.0,0.0,0.0,0.1
1505356812892399563,11271,1505356812892189249,-0.0346476137465,-0.0473787700094,-0.394930451751,0.91683408166,1.0,0.0,0.0,0.0,1.0,0.0,0.0,0.0,100000.0,-0.00296386703849,3.11583280563e-05,-1.32478307933e-05,1.0,0.0,0.0,0.0,1.0,0.0,0.0,0.0,1.0,0.814068865776,-0.112279539369,9.32326420546,0.1,0.0,0.0,0.0,0.1,0.0,0.0,0.0,0.1
1505356812897548696,11272,1505356812897362745,-0.0346560272602,-0.0473750215721,-0.394938861647,0.916830334722,1.0,0.0,0.0,0.0,1.0,0.0,0.0,0.0,100000.0,-0.00274413079023,0.000293804332614,-0.000604634173214,1.0,0.0,0.0,0.0,1.0,0.0,0.0,0.0,1.0,0.8140708372,-0.110807305761,9.35764116049,0.1,0.0,0.0,0.0,0.1,0.0,0.0,0.0,0.1
1505356812902701911,11273,1505356812902495857,-0.0346644416623,-0.0473712725772,-0.394947271526,0.916826587601,1.0,0.0,0.0,0.0,1.0,0.0,0.0,0.0,100000.0,-0.00197498872876,-0.000360192731023,-0.00101245415863,1.0,0.0,0.0,0.0,1.0,0.0,0.0,0.0,1.0,0.814172329009,-0.117536057532,9.37349900007,0.1,0.0,0.0,0.0,0.1,0.0,0.0,0.0,0.1
1505356812906018139,11274,1505356812905895551,-0.0346614220851,-0.0473629636717,-0.394955390295,0.916823633622,1.0,0.0,0.0,0.0,1.0,0.0,0.0,0.0,100000.0,-0.00126859173179,0.000109035529022,0.000219431589358,1.0,0.0,0.0,0.0,1.0,0.0,0.0,0.0,1.0,0.814180652797,-0.0985461734235,9.37894947529,0.1,0.0,0.0,0.0,0.1,0.0,0.0,0.0,0.1
1505356812911634345,11275,1505356812911413334,-0.0346614220851,-0.0473629636717,-0.394955390295,0.916823633622,1.0,0.0,0.0,0.0,1.0,0.0,0.0,0.0,100000.0,-0.000701371580362,0.000750603154302,0.000355064170435,1.0,0.0,0.0,0.0,1.0,0.0,0.0,0.0,1.0,0.8140322119,-0.0781391916797,9.37222151756,0.1,0.0,0.0,0.0,0.1,0.0,0.0,0.0,0.1
1505356812916470224,11276,1505356812916277671,-0.0346538340278,-0.0473661082265,-0.394962973337,0.916820491302,1.0,0.0,0.0,0.0,1.0,0.0,0.0,0.0,100000.0,-0.0010783188045,0.0010047275573,0.00126008293591,1.0,0.0,0.0,0.0,1.0,0.0,0.0,0.0,1.0,0.813809148967,-0.044861848373,9.35914353132,0.1,0.0,0.0,0.0,0.1,0.0,0.0,0.0,0.1
1505356812921244272,11277,1505356812921119171,-0.03464239943,-0.0473615492975,-0.394962651947,0.916821297406,1.0,0.0,0.0,0.0,1.0,0.0,0.0,0.0,100000.0,-0.00172071158886,0.00153497990686,0.00119082571473,1.0,0.0,0.0,0.0,1.0,0.0,0.0,0.0,1.0,0.813555857539,-0.0277044116519,9.36534986496,0.1,0.0,0.0,0.0,0.1,0.0,0.0,0.0,0.1
1505356812928788163,11278,1505356812928582442,-0.0346428125096,-0.0473612471495,-0.394970648321,0.916817852561,1.0,0.0,0.0,0.0,1.0,0.0,0.0,0.0,100000.0,-0.00171541795135,0.00127919390798,0.000775382155553,1.0,0.0,0.0,0.0,1.0,0.0,0.0,0.0,1.0,0.813442026079,-0.024998714868,9.36315822601,0.1,0.0,0.0,0.0,0.1,0.0,0.0,0.0,0.1
1505356812935357078,11279,1505356812935071164,-0.0346317899413,-0.0473563866736,-0.394978323318,0.916815213593,1.0,0.0,0.0,0.0,1.0,0.0,0.0,0.0,100000.0,-0.00215449556708,0.000717611983418,0.000556240789592,1.0,0.0,0.0,0.0,1.0,0.0,0.0,0.0,1.0,0.813514530659,-0.0314800598193,9.35641624928,0.1,0.0,0.0,0.0,0.1,0.0,0.0,0.0,0.1
1505356812936720958,11280,1505356812936593093,-0.0346322029759,-0.0473560846181,-0.394986319639,0.916811768612,1.0,0.0,0.0,0.0,1.0,0.0,0.0,0.0,100000.0,-0.00157356634736,0.000870753079653,-0.000191180035472,1.0,0.0,0.0,0.0,1.0,0.0,0.0,0.0,1.0,0.813769063354,-0.0596157865599,9.33452848196,0.1,0.0,0.0,0.0,0.1,0.0,0.0,0.0,0.1
1505356812945662791,11281,1505356812945451945,-0.0346326160078,-0.047355782559,-0.394994315929,0.916808323561,1.0,0.0,0.0,0.0,1.0,0.0,0.0,0.0,100000.0,-0.00202523171902,0.000421633943915,-0.000861060107127,1.0,0.0,0.0,0.0,1.0,0.0,0.0,0.0,1.0,0.814071421325,-0.0729844802059,9.29822391272,0.1,0.0,0.0,0.0,0.1,0.0,0.0,0.0,0.1
1505356812946562286,11282,1505356812946381814,-0.03464103005,-0.0473520332843,-0.395002725449,0.91680457616,1.0,0.0,0.0,0.0,1.0,0.0,0.0,0.0,100000.0,-0.00193580996711,0.000459853559732,-0.000957632088102,1.0,0.0,0.0,0.0,1.0,0.0,0.0,0.0,1.0,0.81434340477,-0.108804859594,9.2835670352,0.1,0.0,0.0,0.0,0.1,0.0,0.0,0.0,0.1
1505356812951772295,11283,1505356812951400265,-0.0346414446229,-0.047351729995,-0.395010752197,0.916801117817,1.0,0.0,0.0,0.0,1.0,0.0,0.0,0.0,100000.0,-0.00152919441462,-0.000342762097716,-0.00141039141454,1.0,0.0,0.0,0.0,1.0,0.0,0.0,0.0,1.0,0.814422407746,-0.117494821921,9.27658030987,0.1,0.0,0.0,0.0,0.1,0.0,0.0,0.0,0.1
1505356812956317225,11284,1505356812956199086,-0.0346498576131,-0.0473479809108,-0.395019161569,0.916797370232,1.0,0.0,0.0,0.0,1.0,0.0,0.0,0.0,100000.0,-0.00155397877097,-0.00100690498948,-0.000154037508764,1.0,0.0,0.0,0.0,1.0,0.0,0.0,0.0,1.0,0.814314198494,-0.111007596925,9.28586848974,0.1,0.0,0.0,0.0,0.1,0.0,0.0,0.0,0.1
1505356812964856684,11285,1505356812964490331,-0.0346532925002,-0.0473559860886,-0.395019069696,0.916796866529,1.0,0.0,0.0,0.0,1.0,0.0,0.0,0.0,100000.0,-0.000413063913584,-0.000949844717979,0.000532541191205,1.0,0.0,0.0,0.0,1.0,0.0,0.0,0.0,1.0,0.814053824544,-0.102697443962,9.29786934853,0.1,0.0,0.0,0.0,0.1,0.0,0.0,0.0,0.1
1505356812967628930,11286,1505356812967333231,-0.0346537055312,-0.0473556838456,-0.395027065856,0.916793421192,1.0,0.0,0.0,0.0,1.0,0.0,0.0,0.0,100000.0,-0.0012481212616,8.19563865662e-07,0.000725138001144,1.0,0.0,0.0,0.0,1.0,0.0,0.0,0.0,1.0,0.81365442872,-0.07301011784,9.29092175961,0.1,0.0,0.0,0.0,0.1,0.0,0.0,0.0,0.1
1505356812971746574,11287,1505356812971537617,-0.034650683533,-0.0473473764811,-0.395035153869,0.916790479487,1.0,0.0,0.0,0.0,1.0,0.0,0.0,0.0,100000.0,-0.00108019635081,0.000806279480457,0.00107443099841,1.0,0.0,0.0,0.0,1.0,0.0,0.0,0.0,1.0,0.813254667819,-0.0830932240933,9.30857870579,0.1,0.0,0.0,0.0,0.1,0.0,0.0,0.0,0.1
1505356812976392666,11288,1505356812976281443,-0.034650683533,-0.0473473764811,-0.395035153869,0.916790479487,1.0,0.0,0.0,0.0,1.0,0.0,0.0,0.0,100000.0,-0.00193730741739,0.00158856809139,-0.000204209238291,1.0,0.0,0.0,0.0,1.0,0.0,0.0,0.0,1.0,0.8128673926,-0.0708801817149,9.31789083481,0.1,0.0,0.0,0.0,0.1,0.0,0.0,0.0,0.1
1505356812981626896,11289,1505356812981449702,-0.0346476613898,-0.0473390691693,-0.39504324183,0.916787537641,1.0,0.0,0.0,0.0,1.0,0.0,0.0,0.0,100000.0,-0.00192375481129,0.000841548666358,0.000809660938103,1.0,0.0,0.0,0.0,1.0,0.0,0.0,0.0,1.0,0.812657545507,-0.0573432690464,9.35639230013,0.1,0.0,0.0,0.0,0.1,0.0,0.0,0.0,0.1
1505356812986790831,11290,1505356812986575737,-0.0346400743929,-0.0473422141997,-0.395050824815,0.916784394399,1.0,0.0,0.0,0.0,1.0,0.0,0.0,0.0,100000.0,-0.00146257504821,0.000473514199257,0.00015544751659,1.0,0.0,0.0,0.0,1.0,0.0,0.0,0.0,1.0,0.812765243649,-0.0441508809105,9.37454692125,0.1,0.0,0.0,0.0,0.1,0.0,0.0,0.0,0.1
1505356812997435331,11291,1505356812997242550,-0.0346324864971,-0.0473453597736,-0.395058407696,0.91678125106,1.0,0.0,0.0,0.0,1.0,0.0,0.0,0.0,100000.0,-0.00164797902107,-0.000225683674216,0.000638712197542,1.0,0.0,0.0,0.0,1.0,0.0,0.0,0.0,1.0,0.813124845922,-0.0169230449479,9.37841324806,0.1,0.0,0.0,0.0,0.1,0.0,0.0,0.0,0.1
1505356812998305642,11292,1505356812998150014,-0.0346249002323,-0.0473485043271,-0.395066021041,0.916778094438,1.0,0.0,0.0,0.0,1.0,0.0,0.0,0.0,100000.0,-0.00165591016412,-0.000111274421215,-0.000169480917975,1.0,0.0,0.0,0.0,1.0,0.0,0.0,0.0,1.0,0.813693857193,-0.0338236466981,9.37364269495,0.1,0.0,0.0,0.0,0.1,0.0,0.0,0.0,0.1
1505356813001914720,11293,1505356813001685198,-0.0346253131981,-0.0473482023317,-0.395074017038,0.916774648691,1.0,0.0,0.0,0.0,1.0,0.0,0.0,0.0,100000.0,-0.00223969295621,0.000285444781184,-0.000635116128251,1.0,0.0,0.0,0.0,1.0,0.0,0.0,0.0,1.0,0.814133995771,-0.0341414862778,9.35782749653,0.1,0.0,0.0,0.0,0.1,0.0,0.0,0.0,0.1
1505356813006687234,11294,1505356813006481076,-0.0346142892863,-0.0473433390663,-0.395081692003,0.916772008663,1.0,0.0,0.0,0.0,1.0,0.0,0.0,0.0,100000.0,-0.00216503813863,0.000954415707383,9.45795763982e-05,1.0,0.0,0.0,0.0,1.0,0.0,0.0,0.0,1.0,0.814345668256,-0.0423798807897,9.36509168148,0.1,0.0,0.0,0.0,0.1,0.0,0.0,0.0,0.1
1505356813012037000,11295,1505356813011731862,-0.0346142892863,-0.0473433390663,-0.395081692003,0.916772008663,1.0,0.0,0.0,0.0,1.0,0.0,0.0,0.0,100000.0,-0.00147172063589,0.00182782683987,0.000224831252126,1.0,0.0,0.0,0.0,1.0,0.0,0.0,0.0,1.0,0.814315220714,-0.0423799766228,9.36357470751,0.1,0.0,0.0,0.0,0.1,0.0,0.0,0.0,0.1
1505356813017755532,11296,1505356813017597074,-0.0346032659629,-0.0473384802195,-0.395089366937,0.916769368166,1.0,0.0,0.0,0.0,1.0,0.0,0.0,0.0,100000.0,-0.000222243368626,0.00164365221281,0.00121127651073,1.0,0.0,0.0,0.0,1.0,0.0,0.0,0.0,1.0,0.814126986265,-0.0295225913171,9.37110642195,0.1,0.0,0.0,0.0,0.1,0.0,0.0,0.0,0.1
1505356813021467553,11297,1505356813021337432,-0.0345956791194,-0.0473416260397,-0.395096949769,0.916766224134,1.0,0.0,0.0,0.0,1.0,0.0,0.0,0.0,100000.0,-0.000494886189699,0.00143913552165,0.00012751086615,1.0,0.0,0.0,0.0,1.0,0.0,0.0,0.0,1.0,0.814018923044,-0.0368236606009,9.36840776205,0.1,0.0,0.0,0.0,0.1,0.0,0.0,0.0,0.1
1505356813030802432,11298,1505356813030558380,-0.0345876784411,-0.047345074074,-0.395096536601,0.916766526018,1.0,0.0,0.0,0.0,1.0,0.0,0.0,0.0,100000.0,-0.00040515139699,-0.00029344111681,0.000832412857562,1.0,0.0,0.0,0.0,1.0,0.0,0.0,0.0,1.0,0.814002202451,-0.0339498520363,9.36510570049,0.1,0.0,0.0,0.0,0.1,0.0,0.0,0.0,0.1
1505356813032115527,11299,1505356813031908013,-0.0345800907262,-0.0473482205037,-0.395104119301,0.916763381823,1.0,0.0,0.0,0.0,1.0,0.0,0.0,0.0,100000.0,-0.00226125866175,-0.00025094486773,0.000805770047009,1.0,0.0,0.0,0.0,1.0,0.0,0.0,0.0,1.0,0.814092741907,-0.0372258926276,9.36667524576,0.1,0.0,0.0,0.0,0.1,0.0,0.0,0.0,0.1
1505356813037194300,11300,1505356813036975056,-0.0345800907262,-0.0473482205037,-0.395104119301,0.916763381823,1.0,0.0,0.0,0.0,1.0,0.0,0.0,0.0,100000.0,-0.00207544490695,-0.000916181132197,0.00195038900711,1.0,0.0,0.0,0.0,1.0,0.0,0.0,0.0,1.0,0.814157652855,-0.0388729874045,9.36528794765,0.1,0.0,0.0,0.0,0.1,0.0,0.0,0.0,0.1
1505356813041873139,11301,1505356813041700123,-0.0345725040199,-0.0473513666548,-0.395111701995,0.91676023746,1.0,0.0,0.0,0.0,1.0,0.0,0.0,0.0,100000.0,-0.00157808884978,0.000352876260877,0.00223766360432,1.0,0.0,0.0,0.0,1.0,0.0,0.0,0.0,1.0,0.814052948356,-0.0350440834183,9.36763262749,0.1,0.0,0.0,0.0,0.1,0.0,0.0,0.0,0.1
1505356813047743384,11302,1505356813047571852,-0.0345690682447,-0.0473433618295,-0.39511179443,0.916760740605,1.0,0.0,0.0,0.0,1.0,0.0,0.0,0.0,100000.0,-0.00123707205057,0.000456336885691,0.000589933246374,1.0,0.0,0.0,0.0,1.0,0.0,0.0,0.0,1.0,0.813768406212,-0.0376617711969,9.36728332043,0.1,0.0,0.0,0.0,0.1,0.0,0.0,0.0,0.1
1505356813052004474,11303,1505356813051612903,-0.0345614821415,-0.0473465074041,-0.395119407613,0.916757582961,1.0,0.0,0.0,0.0,1.0,0.0,0.0,0.0,100000.0,-0.000285767018795,0.000730460567866,0.000289599876851,1.0,0.0,0.0,0.0,1.0,0.0,0.0,0.0,1.0,0.813383540511,-0.0363216959871,9.35131508112,0.1,0.0,0.0,0.0,0.1,0.0,0.0,0.0,0.1
1505356813056746368,11304,1505356813056482908,-0.0345543084466,-0.0473493524748,-0.395134986062,0.916750992024,1.0,0.0,0.0,0.0,1.0,0.0,0.0,0.0,100000.0,-0.00220117717981,0.000570898875594,-0.00157888466492,1.0,0.0,0.0,0.0,1.0,0.0,0.0,0.0,1.0,0.81306270957,-0.0372039331589,9.3335909605,0.1,0.0,0.0,0.0,0.1,0.0,0.0,0.0,0.1
1505356813064186556,11305,1505356813063938498,-0.0345543084466,-0.0473493524748,-0.395134986062,0.916750992024,1.0,0.0,0.0,0.0,1.0,0.0,0.0,0.0,100000.0,-0.00205929577351,-4.33791428804e-05,0.000527584576048,1.0,0.0,0.0,0.0,1.0,0.0,0.0,0.0,1.0,0.812943840027,-0.0383175205439,9.29875020981,0.1,0.0,0.0,0.0,0.1,0.0,0.0,0.0,0.1
1505356813068377681,11306,1505356813068103611,-0.0345547214198,-0.0473490510951,-0.395142981822,0.916747545677,1.0,0.0,0.0,0.0,1.0,0.0,0.0,0.0,100000.0,-0.00280173122883,0.000113908208732,0.000836330000311,1.0,0.0,0.0,0.0,1.0,0.0,0.0,0.0,1.0,0.813017001748,-0.0370239449199,9.28338478804,0.1,0.0,0.0,0.0,0.1,0.0,0.0,0.0,0.1
1505356813071987319,11307,1505356813071743572,-0.0345467209046,-0.0473524995311,-0.395142568589,0.916747847203,1.0,0.0,0.0,0.0,1.0,0.0,0.0,0.0,100000.0,-0.00180701166391,-0.000551030039787,0.0026730725076,1.0,0.0,0.0,0.0,1.0,0.0,0.0,0.0,1.0,0.813229258358,-0.0379501649179,9.27790101767,0.1,0.0,0.0,0.0,0.1,0.0,0.0,0.0,0.1
1505356813078811137,11308,1505356813078589494,-0.0345391334175,-0.0473556467198,-0.395150151062,0.91674470225,1.0,0.0,0.0,0.0,1.0,0.0,0.0,0.0,100000.0,-0.000702179968357,-0.000228075310588,0.00114095397294,1.0,0.0,0.0,0.0,1.0,0.0,0.0,0.0,1.0,0.813460206985,-0.03708808464,9.28424637318,0.1,0.0,0.0,0.0,0.1,0.0,0.0,0.0,0.1
1505356813082054343,11309,1505356813081869327,-0.0345311338808,-0.0473590948073,-0.39514973782,0.916745003604,1.0,0.0,0.0,0.0,1.0,0.0,0.0,0.0,100000.0,-0.000950742512941,-0.000556660816073,-0.000282459426671,1.0,0.0,0.0,0.0,1.0,0.0,0.0,0.0,1.0,0.813621644676,-0.0369197195861,9.29735298157,0.1,0.0,0.0,0.0,0.1,0.0,0.0,0.0,0.1
1505356813087064017,11310,1505356813086835373,-0.0345319599945,-0.0473584924485,-0.395165729206,0.916738110582,1.0,0.0,0.0,0.0,1.0,0.0,0.0,0.0,100000.0,-0.0010168030858,-4.10340726376e-06,-0.00165207486134,1.0,0.0,0.0,0.0,1.0,0.0,0.0,0.0,1.0,0.813695171475,-0.0373043320142,9.29085458517,0.1,0.0,0.0,0.0,0.1,0.0,0.0,0.0,0.1
1505356813091925254,11311,1505356813091721676,-0.0345243742212,-0.0473616388188,-0.395173342059,0.916734952142,1.0,0.0,0.0,0.0,1.0,0.0,0.0,0.0,100000.0,-0.0020207837224,0.000219946727157,-0.0017006326234,1.0,0.0,0.0,0.0,1.0,0.0,0.0,0.0,1.0,0.81365917474,-0.0368714197073,9.29318991899,0.1,0.0,0.0,0.0,0.1,0.0,0.0,0.0,0.1
1505356813099046565,11312,1505356813098870774,-0.034528223732,-0.0473693422507,-0.395181244787,0.916731002503,1.0,0.0,0.0,0.0,1.0,0.0,0.0,0.0,100000.0,-0.001932810992,0.00041333961417,0.000323368934914,1.0,0.0,0.0,0.0,1.0,0.0,0.0,0.0,1.0,0.828880390525,-0.0525578891858,9.28517922163,0.1,0.0,0.0,0.0,0.1,0.0,0.0,0.0,0.1
1505356813102098099,11313,1505356813101856414,-0.0345286368796,-0.0473690410985,-0.395189240373,0.916727555751,1.0,0.0,0.0,0.0,1.0,0.0,0.0,0.0,100000.0,-0.00158132240176,0.000394409551518,0.00086352112703,1.0,0.0,0.0,0.0,1.0,0.0,0.0,0.0,1.0,0.847577445209,-0.0708669019863,9.28895500898,0.1,0.0,0.0,0.0,0.1,0.0,0.0,0.0,0.1
1505356813107125958,11314,1505356813106818138,-0.0345320733772,-0.0473770456154,-0.395189147446,0.916727052725,1.0,0.0,0.0,0.0,1.0,0.0,0.0,0.0,100000.0,-0.00120606273413,-0.000286860391498,0.00236870907247,1.0,0.0,0.0,0.0,1.0,0.0,0.0,0.0,1.0,0.882315900922,-0.089752410166,9.3066744566,0.1,0.0,0.0,0.0,0.1,0.0,0.0,0.0,0.1
1505356813112183186,11315,1505356813111991562,-0.0345389480032,-0.0473930584556,-0.395188961456,0.916726046223,1.0,0.0,0.0,0.0,1.0,0.0,0.0,0.0,100000.0,-0.00128856673837,-0.000147229060531,0.00139458104968,1.0,0.0,0.0,0.0,1.0,0.0,0.0,0.0,1.0,0.898831830919,-0.0873493725434,9.3237618804,0.1,0.0,0.0,0.0,0.1,0.0,0.0,0.0,0.1
1505356813117099225,11316,1505356813116938098,-0.0345423844929,-0.0474010629618,-0.395188868439,0.916725542988,1.0,0.0,0.0,0.0,1.0,0.0,0.0,0.0,100000.0,-0.00146609172225,-0.000309212162392,0.00166731514037,1.0,0.0,0.0,0.0,1.0,0.0,0.0,0.0,1.0,0.889148271084,-0.0579209965654,9.3592346549,0.1,0.0,0.0,0.0,0.1,0.0,0.0,0.0,0.1
1505356813121964547,11317,1505356813121767566,-0.034546234474,-0.0474087661586,-0.395196770925,0.916721592865,1.0,0.0,0.0,0.0,1.0,0.0,0.0,0.0,100000.0,-0.00189419463277,0.000762004463468,0.000660892575979,1.0,0.0,0.0,0.0,1.0,0.0,0.0,0.0,1.0,0.878943014145,-0.0349899240304,9.37254687548,0.1,0.0,0.0,0.0,0.1,0.0,0.0,0.0,0.1
1505356813129907045,11318,1505356813129667546,-0.0345386486604,-0.0474119134134,-0.395204352727,0.916718447399,1.0,0.0,0.0,0.0,1.0,0.0,0.0,0.0,100000.0,-0.00149942934513,0.00104924291372,-0.000354288611561,1.0,0.0,0.0,0.0,1.0,0.0,0.0,0.0,1.0,0.849890290201,-0.0165926466696,9.37841792107,0.1,0.0,0.0,0.0,0.1,0.0,0.0,0.0,0.1
1505356813132417545,11319,1505356813132217985,-0.0345310619481,-0.0474150612117,-0.395211934424,0.916715301836,1.0,0.0,0.0,0.0,1.0,0.0,0.0,0.0,100000.0,-0.00126006826758,0.000942831858993,-0.000683487858623,1.0,0.0,0.0,0.0,1.0,0.0,0.0,0.0,1.0,0.859208917618,-0.0444143260829,9.37266136408,0.1,0.0,0.0,0.0,0.1,0.0,0.0,0.0,0.1
1505356813137147379,11320,1505356813136939373,-0.0345314754944,-0.0474147600347,-0.395219929873,0.916711854817,1.0,0.0,0.0,0.0,1.0,0.0,0.0,0.0,100000.0,-0.000457771122456,0.000314990058541,-0.000745238736272,1.0,0.0,0.0,0.0,1.0,0.0,0.0,0.0,1.0,0.849359174073,-0.0738117662258,9.35933045149,0.1,0.0,0.0,0.0,0.1,0.0,0.0,0.0,0.1
1505356813143509154,11321,1505356813143258156,-0.034535327459,-0.0474224620519,-0.39522786257,0.91670789126,1.0,0.0,0.0,0.0,1.0,0.0,0.0,0.0,100000.0,8.99471342564e-05,-0.000878671184182,0.000988353043795,1.0,0.0,0.0,0.0,1.0,0.0,0.0,0.0,1.0,0.835454577208,-0.0947806265205,9.36634988785,0.1,0.0,0.0,0.0,0.1,0.0,0.0,0.0,0.1
1505356813151434648,11322,1505356813151209234,-0.034535327459,-0.0474224620519,-0.39522786257,0.91670789126,1.0,0.0,0.0,0.0,1.0,0.0,0.0,0.0,100000.0,0.000228594988585,-0.00100657716393,0.00235151243396,1.0,0.0,0.0,0.0,1.0,0.0,0.0,0.0,1.0,0.821708205342,-0.106162586063,9.36333521605,0.1,0.0,0.0,0.0,0.1,0.0,0.0,0.0,0.1
1505356813152051323,11323,1505356813151912714,-0.0345273272899,-0.0474259112287,-0.395227448696,0.916708192617,1.0,0.0,0.0,0.0,1.0,0.0,0.0,0.0,100000.0,-6.85080885887e-06,-0.00113232247531,0.00172060041223,1.0,0.0,0.0,0.0,1.0,0.0,0.0,0.0,1.0,0.79449094981,-0.0857651602477,9.35646414757,0.1,0.0,0.0,0.0,0.1,0.0,0.0,0.0,0.1
1505356813157082443,11324,1505356813156915032,-0.034535327459,-0.0474224620519,-0.39522786257,0.91670789126,1.0,0.0,0.0,0.0,1.0,0.0,0.0,0.0,100000.0,-0.000902384519577,-0.000682778656483,0.00152895553038,1.0,0.0,0.0,0.0,1.0,0.0,0.0,0.0,1.0,0.810837702453,-0.102267116867,9.34978350401,0.1,0.0,0.0,0.0,0.1,0.0,0.0,0.0,0.1
1505356813164166548,11325,1505356813163917481,-0.0345357410699,-0.0474221608378,-0.395235857954,0.916704444103,1.0,0.0,0.0,0.0,1.0,0.0,0.0,0.0,100000.0,-0.00113734602928,-0.000525733456016,-0.000582653097808,1.0,0.0,0.0,0.0,1.0,0.0,0.0,0.0,1.0,0.81153909117,-0.101509606466,9.33156170845,0.1,0.0,0.0,0.0,0.1,0.0,0.0,0.0,0.1
1505356813167193488,11326,1505356813166991730,-0.0345441547845,-0.0474184103,-0.395244267147,0.916700695441,1.0,0.0,0.0,0.0,1.0,0.0,0.0,0.0,100000.0,-0.00128792971373,-0.000535152852535,0.000826334580779,1.0,0.0,0.0,0.0,1.0,0.0,0.0,0.0,1.0,0.819619226456,-0.106008678116,9.35119066238,0.1,0.0,0.0,0.0,0.1,0.0,0.0,0.0,0.1
1505356813173747603,11327,1505356813173552389,-0.0345441547845,-0.0474184103,-0.395244267147,0.916700695441,1.0,0.0,0.0,0.0,1.0,0.0,0.0,0.0,100000.0,-0.000461984425783,-0.00047830119729,0.00110593810678,1.0,0.0,0.0,0.0,1.0,0.0,0.0,0.0,1.0,0.819217640162,-0.0923809750006,9.35995721817,0.1,0.0,0.0,0.0,0.1,0.0,0.0,0.0,0.1
1505356813177307518,11328,1505356813177071120,-0.0345365682837,-0.0474215583986,-0.395251848633,0.916697549578,1.0,0.0,0.0,0.0,1.0,0.0,0.0,0.0,100000.0,-0.000481434166431,-5.6941062212e-06,0.00230386294425,1.0,0.0,0.0,0.0,1.0,0.0,0.0,0.0,1.0,0.806335043907,-0.043804809358,9.37445112467,0.1,0.0,0.0,0.0,0.1,0.0,0.0,0.0,0.1
1505356813182382299,11329,1505356813182153351,-0.0345285682048,-0.0474250077847,-0.395251434767,0.916697850946,1.0,0.0,0.0,0.0,1.0,0.0,0.0,0.0,100000.0,-2.79434025288e-05,0.000180730610737,0.00198707357049,1.0,0.0,0.0,0.0,1.0,0.0,0.0,0.0,1.0,0.813497006893,-0.0333344050683,9.36490008831,0.1,0.0,0.0,0.0,0.1,0.0,0.0,0.0,0.1
1505356813187840220,11330,1505356813187603406,-0.0345125689927,-0.047431906135,-0.395250606994,0.916698453436,1.0,0.0,0.0,0.0,1.0,0.0,0.0,0.0,100000.0,-0.000266879796982,0.000778680667281,0.00103845447302,1.0,0.0,0.0,0.0,1.0,0.0,0.0,0.0,1.0,0.810908673704,-0.0151752341539,9.34169219732,0.1,0.0,0.0,0.0,0.1,0.0,0.0,0.0,0.1
1505356813192730107,11331,1505356813192543842,-0.0345015454899,-0.0474270503402,-0.395258281879,0.91669581043,1.0,0.0,0.0,0.0,1.0,0.0,0.0,0.0,100000.0,-0.000136565417051,0.000313704833388,0.00057942327112,1.0,0.0,0.0,0.0,1.0,0.0,0.0,0.0,1.0,0.814369033277,-0.0351448998321,9.33505010605,0.1,0.0,0.0,0.0,0.1,0.0,0.0,0.0,0.1
1505356813198026171,11332,1505356813197852153,-0.0345019591407,-0.0474267494207,-0.395266277158,0.916692363007,1.0,0.0,0.0,0.0,1.0,0.0,0.0,0.0,100000.0,-1.40517950058e-05,0.000140618532896,0.00032626837492,1.0,0.0,0.0,0.0,1.0,0.0,0.0,0.0,1.0,0.816044670343,-0.0454886606894,9.34183063507,0.1,0.0,0.0,0.0,0.1,0.0,0.0,0.0,0.1
1505356813203778802,11333,1505356813203549661,-0.034494375318,-0.0474298965199,-0.395273889064,0.91668920339,1.0,0.0,0.0,0.0,1.0,0.0,0.0,0.0,100000.0,-0.000675201474223,-0.000326124951243,0.00025374814868,1.0,0.0,0.0,0.0,1.0,0.0,0.0,0.0,1.0,0.812357085943,-0.0372936922591,9.35022393465,0.1,0.0,0.0,0.0,0.1,0.0,0.0,0.0,0.1
1505356813207590293,11334,1505356813207263717,-0.0344867890177,-0.0474330453111,-0.39528147035,0.916686056834,1.0,0.0,0.0,0.0,1.0,0.0,0.0,0.0,100000.0,-0.000521022826433,-0.000488890334964,0.000261422013864,1.0,0.0,0.0,0.0,1.0,0.0,0.0,0.0,1.0,0.815103425086,-0.0421341008507,9.34241008759,0.1,0.0,0.0,0.0,0.1,0.0,0.0,0.0,0.1
1505356813212426024,11335,1505356813212237997,-0.0344787899927,-0.0474364945446,-0.395281056433,0.916686357732,1.0,0.0,0.0,0.0,1.0,0.0,0.0,0.0,100000.0,-0.001400295645,-4.48878854513e-05,0.000319020124152,1.0,0.0,0.0,0.0,1.0,0.0,0.0,0.0,1.0,0.813800679147,-0.0296090031043,9.31070842743,0.1,0.0,0.0,0.0,0.1,0.0,0.0,0.0,0.1
1505356813217317301,11336,1505356813217110521,-0.0344746412113,-0.0474476476351,-0.395288543803,0.916682707912,1.0,0.0,0.0,0.0,1.0,0.0,0.0,0.0,100000.0,-0.00119698047638,-0.000356268137693,0.000453294604085,1.0,0.0,0.0,0.0,1.0,0.0,0.0,0.0,1.0,0.814593118429,-0.0378682070877,9.27872872353,0.1,0.0,0.0,0.0,0.1,0.0,0.0,0.0,0.1
1505356813222517802,11337,1505356813222315679,-0.0344750550418,-0.0474473469503,-0.395296538967,0.916679260226,1.0,0.0,0.0,0.0,1.0,0.0,0.0,0.0,100000.0,-0.00126179307699,0.000258693471551,0.00103599368595,1.0,0.0,0.0,0.0,1.0,0.0,0.0,0.0,1.0,0.815090501308,-0.0392525822856,9.29195975065,0.1,0.0,0.0,0.0,0.1,0.0,0.0,0.0,0.1
1505356813231069262,11338,1505356813230907782,-0.0344670551225,-0.0474507967264,-0.395296124876,0.916679561057,1.0,0.0,0.0,0.0,1.0,0.0,0.0,0.0,100000.0,-0.00115507468581,-0.000396411895053,0.000898459285963,1.0,0.0,0.0,0.0,1.0,0.0,0.0,0.0,1.0,0.81338237226,-0.0371396519709,9.2954148531,0.1,0.0,0.0,0.0,0.1,0.0,0.0,0.0,0.1
1505356813232581861,11339,1505356813232383041,-0.0344560324574,-0.0474459414995,-0.395303799927,0.916676917036,1.0,0.0,0.0,0.0,1.0,0.0,0.0,0.0,100000.0,-0.000451888889074,0.000474758446217,0.000865255482495,1.0,0.0,0.0,0.0,1.0,0.0,0.0,0.0,1.0,0.813976062834,-0.0391335073858,9.33558633327,0.1,0.0,0.0,0.0,0.1,0.0,0.0,0.0,0.1
1505356813237626006,11340,1505356813237408960,-0.0344564462731,-0.047445640977,-0.395311795041,0.916673469216,1.0,0.0,0.0,0.0,1.0,0.0,0.0,0.0,100000.0,-0.000452399253845,0.000438127666712,0.000146656762809,1.0,0.0,0.0,0.0,1.0,0.0,0.0,0.0,1.0,0.813221007586,-0.0497663898394,9.30894728899,0.1,0.0,0.0,0.0,0.1,0.0,0.0,0.0,0.1
1505356813242640068,11341,1505356813242493033,-0.0344488602474,-0.0474487904298,-0.395319376052,0.916670321998,1.0,0.0,0.0,0.0,1.0,0.0,0.0,0.0,100000.0,-0.000121470540762,0.000843064859509,-3.8088997826e-05,1.0,0.0,0.0,0.0,1.0,0.0,0.0,0.0,1.0,0.813391937315,-0.0702769625932,9.2983722806,0.1,0.0,0.0,0.0,0.1,0.0,0.0,0.0,0.1
1505356813253797243,11342,1505356813253571584,-0.0344488602474,-0.0474487904298,-0.395319376052,0.916670321998,1.0,0.0,0.0,0.0,1.0,0.0,0.0,0.0,100000.0,-9.82880592346e-05,0.00121917203069,-0.000456334353657,1.0,0.0,0.0,0.0,1.0,0.0,0.0,0.0,1.0,0.81388194561,-0.10510725379,9.2792363286,0.1,0.0,0.0,0.0,0.1,0.0,0.0,0.0,0.1
1505356813253829449,11343,1505356813253605333,-0.0344572754759,-0.047445038774,-0.395327815695,0.916666560206,1.0,0.0,0.0,0.0,1.0,0.0,0.0,0.0,100000.0,-0.000726111233234,0.000460790499346,-0.000106122693978,1.0,0.0,0.0,0.0,1.0,0.0,0.0,0.0,1.0,0.813612882793,-0.120734245144,9.27380045652,0.1,0.0,0.0,0.0,0.1,0.0,0.0,0.0,0.1
1505356813257813807,11344,1505356813257594421,-0.0344542514167,-0.0474367343178,-0.395335904689,0.916663615107,1.0,0.0,0.0,0.0,1.0,0.0,0.0,0.0,100000.0,-0.000813607126474,0.00102267228067,-0.000599122722633,1.0,0.0,0.0,0.0,1.0,0.0,0.0,0.0,1.0,0.814191970229,-0.112474865466,9.29836702347,0.1,0.0,0.0,0.0,0.1,0.0,0.0,0.0,0.1
1505356813267295967,11345,1505356813267044143,-0.0344626639484,-0.0474329840289,-0.395344313603,0.91665986632,1.0,0.0,0.0,0.0,1.0,0.0,0.0,0.0,100000.0,-0.00174773123581,-0.00024919398129,-0.000123453210108,1.0,0.0,0.0,0.0,1.0,0.0,0.0,0.0,1.0,0.814192189276,-0.0862769819796,9.28816994429,0.1,0.0,0.0,0.0,0.1,0.0,0.0,0.0,0.1
1505356813268620819,11346,1505356813268391706,-0.0344550788847,-0.0474361333001,-0.395351894655,0.916656718837,1.0,0.0,0.0,0.0,1.0,0.0,0.0,0.0,100000.0,-0.00181317701936,0.000120418153529,-0.000431644497439,1.0,0.0,0.0,0.0,1.0,0.0,0.0,0.0,1.0,0.814320039749,-0.0399806856178,9.2992192626,0.1,0.0,0.0,0.0,0.1,0.0,0.0,0.0,0.1
1505356813272933849,11347,1505356813272662284,-0.0344589306912,-0.0474438366187,-0.395359795611,0.91665276767,1.0,0.0,0.0,0.0,1.0,0.0,0.0,0.0,100000.0,-0.00152314454317,-0.000382777303457,0.000263297348283,1.0,0.0,0.0,0.0,1.0,0.0,0.0,0.0,1.0,0.814515940845,-0.0303291728254,9.28538541794,0.1,0.0,0.0,0.0,0.1,0.0,0.0,0.0,0.1
1505356813277978236,11348,1505356813277729997,-0.0344513448305,-0.0474469864688,-0.395367376457,0.916649620056,1.0,0.0,0.0,0.0,1.0,0.0,0.0,0.0,100000.0,-0.00152418762445,-0.000131895765662,0.000213779683691,1.0,0.0,0.0,0.0,1.0,0.0,0.0,0.0,1.0,0.814209201932,-0.0222372135613,9.28615062237,0.1,0.0,0.0,0.0,0.1,0.0,0.0,0.0,0.1
1505356813282883348,11349,1505356813282665948,-0.0344433461235,-0.0474504364518,-0.395366962418,0.916649920644,1.0,0.0,0.0,0.0,1.0,0.0,0.0,0.0,100000.0,-0.000895906239748,0.000181682407856,-5.57171006221e-05,1.0,0.0,0.0,0.0,1.0,0.0,0.0,0.0,1.0,0.814116252959,-0.0373020069208,9.29148135185,0.1,0.0,0.0,0.0,0.1,0.0,0.0,0.0,0.1
1505356813287865223,11350,1505356813287689660,-0.0344437599783,-0.0474501360399,-0.395374957297,0.916646472273,1.0,0.0,0.0,0.0,1.0,0.0,0.0,0.0,100000.0,-0.00131057947874,-0.000131512060761,-0.000369848508853,1.0,0.0,0.0,0.0,1.0,0.0,0.0,0.0,1.0,0.813713790476,-0.0456499295309,9.28798360825,0.1,0.0,0.0,0.0,0.1,0.0,0.0,0.0,0.1
1505356813297578291,11351,1505356813297348299,-0.0344365896869,-0.0474529846589,-0.395390563369,0.916639862725,1.0,0.0,0.0,0.0,1.0,0.0,0.0,0.0,100000.0,-0.000850703567266,-0.00012869015336,-0.00091154652182,1.0,0.0,0.0,0.0,1.0,0.0,0.0,0.0,1.0,0.813406759501,-0.0520811469294,9.29286923409,0.1,0.0,0.0,0.0,0.1,0.0,0.0,0.0,0.1
1505356813299929827,11352,1505356813299753235,-0.0344365896869,-0.0474529846589,-0.395390563369,0.916639862725,1.0,0.0,0.0,0.0,1.0,0.0,0.0,0.0,100000.0,-0.000787734985352,-0.00020469725132,7.69085017964e-05,1.0,0.0,0.0,0.0,1.0,0.0,0.0,0.0,1.0,0.813291832805,-0.0738593907095,9.28904087543,0.1,0.0,0.0,0.0,0.1,0.0,0.0,0.0,0.1
1505356813304897589,11353,1505356813304557464,-0.0344370035639,-0.0474526843059,-0.395398558161,0.916636414148,1.0,0.0,0.0,0.0,1.0,0.0,0.0,0.0,100000.0,-8.22991132736e-05,-7.13877379894e-05,0.000532140722498,1.0,0.0,0.0,0.0,1.0,0.0,0.0,0.0,1.0,0.813188734651,-0.0981468414888,9.28898363113,0.1,0.0,0.0,0.0,0.1,0.0,0.0,0.0,0.1
1505356813307975072,11354,1505356813307771607,-0.0344370035639,-0.0474526843059,-0.395398558161,0.916636414148,1.0,0.0,0.0,0.0,1.0,0.0,0.0,0.0,100000.0,-1.33365392685e-06,0.000517914071679,0.000919962534681,1.0,0.0,0.0,0.0,1.0,0.0,0.0,0.0,1.0,0.813312277198,-0.121051699109,9.29079734087,0.1,0.0,0.0,0.0,0.1,0.0,0.0,0.0,0.1
1505356813313079737,11355,1505356813312891616,-0.034445416951,-0.0474489332095,-0.395406967027,0.916632664929,1.0,0.0,0.0,0.0,1.0,0.0,0.0,0.0,100000.0,0.000433597713709,0.000720959156752,0.000652758812066,1.0,0.0,0.0,0.0,1.0,0.0,0.0,0.0,1.0,0.813409242034,-0.128183926456,9.28915594816,0.1,0.0,0.0,0.0,0.1,0.0,0.0,0.0,0.1
1505356813317826137,11356,1505356813317620446,-0.0344423922187,-0.0474406291584,-0.395415055908,0.916629719071,1.0,0.0,0.0,0.0,1.0,0.0,0.0,0.0,100000.0,0.000415317714214,0.00105967931449,-0.000373933231458,1.0,0.0,0.0,0.0,1.0,0.0,0.0,0.0,1.0,0.813563889265,-0.120025271922,9.29109407663,0.1,0.0,0.0,0.0,0.1,0.0,0.0,0.0,0.1
1505356813323193255,11357,1505356813322998896,-0.0344423922187,-0.0474406291584,-0.395415055908,0.916629719071,1.0,0.0,0.0,0.0,1.0,0.0,0.0,0.0,100000.0,-1.9546598196e-05,0.00127824780066,9.9258730188e-05,1.0,0.0,0.0,0.0,1.0,0.0,0.0,0.0,1.0,0.813807104528,-0.109692666493,9.28983528614,0.1,0.0,0.0,0.0,0.1,0.0,0.0,0.0,0.1
1505356813329604418,11358,1505356813329371160,-0.0344508044886,-0.0474368782823,-0.395423464561,0.916625969697,1.0,0.0,0.0,0.0,1.0,0.0,0.0,0.0,100000.0,-0.000370960682631,0.00080003408948,-0.000164541765116,1.0,0.0,0.0,0.0,1.0,0.0,0.0,0.0,1.0,0.814080402255,-0.112633017451,9.28974941969,0.1,0.0,0.0,0.0,0.1,0.0,0.0,0.0,0.1
1505356813332870212,11359,1505356813332732015,-0.0344592176467,-0.0474331268482,-0.395431873198,0.916622220141,1.0,0.0,0.0,0.0,1.0,0.0,0.0,0.0,100000.0,-0.00249003991485,0.000428853556514,0.000871109892614,1.0,0.0,0.0,0.0,1.0,0.0,0.0,0.0,1.0,0.814405614138,-0.112452814728,9.29034756422,0.1,0.0,0.0,0.0,0.1,0.0,0.0,0.0,0.1
1505356813337993481,11360,1505356813337834543,-0.0344592176467,-0.0474331268482,-0.395431873198,0.916622220141,1.0,0.0,0.0,0.0,1.0,0.0,0.0,0.0,100000.0,-0.00215730816126,-0.000360546633601,0.00100693257991,1.0,0.0,0.0,0.0,1.0,0.0,0.0,0.0,1.0,0.814637950063,-0.106020899117,9.28957710266,0.1,0.0,0.0,0.0,0.1,0.0,0.0,0.0,0.1
1505356813342945379,11361,1505356813342809281,-0.0344676313647,-0.0474293745312,-0.395440312234,0.916618457309,1.0,0.0,0.0,0.0,1.0,0.0,0.0,0.0,100000.0,-0.00288233533502,-0.000601360574365,0.00121266208589,1.0,0.0,0.0,0.0,1.0,0.0,0.0,0.0,1.0,0.814703810215,-0.082979830727,9.29021788836,0.1,0.0,0.0,0.0,0.1,0.0,0.0,0.0,0.1
1505356813348030972,11362,1505356813347818186,-0.0344596329296,-0.0474328251507,-0.395439898349,0.91661875804,1.0,0.0,0.0,0.0,1.0,0.0,0.0,0.0,100000.0,-0.00078749662498,-0.00035010650754,0.00154589908198,1.0,0.0,0.0,0.0,1.0,0.0,0.0,0.0,1.0,0.814554712176,-0.0471050592139,9.28966764212,0.1,0.0,0.0,0.0,0.1,0.0,0.0,0.0,0.1
1505356813356691323,11363,1505356813356450044,-0.0344520472696,-0.0474359756937,-0.395447478995,0.916615609733,1.0,0.0,0.0,0.0,1.0,0.0,0.0,0.0,100000.0,-0.000199630856514,-0.000210816040635,0.000297441147268,1.0,0.0,0.0,0.0,1.0,0.0,0.0,0.0,1.0,0.814213436842,-0.0302325456869,9.28954322338,0.1,0.0,0.0,0.0,0.1,0.0,0.0,0.0,0.1
1505356813360530184,11364,1505356813360226174,-0.0344444626182,-0.0474391259577,-0.395455059635,0.916612461258,1.0,0.0,0.0,0.0,1.0,0.0,0.0,0.0,100000.0,0.000117711722851,-1.95316970348e-05,6.73220492899e-05,1.0,0.0,0.0,0.0,1.0,0.0,0.0,0.0,1.0,0.813769063354,-0.0230579350144,9.28973481655,0.1,0.0,0.0,0.0,0.1,0.0,0.0,0.0,0.1
1505356813363862211,11365,1505356813363617090,-0.0344368770682,-0.0474422767654,-0.39546264017,0.916609312686,1.0,0.0,0.0,0.0,1.0,0.0,0.0,0.0,100000.0,0.000256553292274,4.85833734274e-05,-0.00128736090846,1.0,0.0,0.0,0.0,1.0,0.0,0.0,0.0,1.0,0.81333527714,-0.0320922621526,9.28949065208,0.1,0.0,0.0,0.0,0.1,0.0,0.0,0.0,0.1
1505356813371892774,11366,1505356813371638374,-0.0344292915731,-0.0474454277054,-0.395470220651,0.916606163982,1.0,0.0,0.0,0.0,1.0,0.0,0.0,0.0,100000.0,-0.000840682536364,-0.000289309769869,-0.000416709168348,1.0,0.0,0.0,0.0,1.0,0.0,0.0,0.0,1.0,0.813019630313,-0.0439189922065,9.28980666399,0.1,0.0,0.0,0.0,0.1,0.0,0.0,0.0,0.1
1505356813373108503,11367,1505356813372934115,-0.0344217070865,-0.0474485783662,-0.395477801126,0.91660301511,1.0,0.0,0.0,0.0,1.0,0.0,0.0,0.0,100000.0,-0.000373493880033,0.000393230468035,-9.65736107901e-05,1.0,0.0,0.0,0.0,1.0,0.0,0.0,0.0,1.0,0.812857097387,-0.0380491057411,9.28967289925,0.1,0.0,0.0,0.0,0.1,0.0,0.0,0.0,0.1
1505356813378069486,11368,1505356813377919613,-0.0344221209252,-0.0474482781431,-0.395485795595,0.916599565773,1.0,0.0,0.0,0.0,1.0,0.0,0.0,0.0,100000.0,-0.00150023773313,-0.000209918245673,0.0007433759165,1.0,0.0,0.0,0.0,1.0,0.0,0.0,0.0,1.0,0.812894773483,-0.040913123358,9.28964369297,0.1,0.0,0.0,0.0,0.1,0.0,0.0,0.0,0.1
1505356813384263095,11369,1505356813384071710,-0.0344141217014,-0.0474517295708,-0.395485381496,0.916599866142,1.0,0.0,0.0,0.0,1.0,0.0,0.0,0.0,100000.0,-0.00115675479174,0.000581815838814,0.000615301425569,1.0,0.0,0.0,0.0,1.0,0.0,0.0,0.0,1.0,0.813061468303,-0.0326847799122,9.2897061944,0.1,0.0,0.0,0.0,0.1,0.0,0.0,0.0,0.1
1505356813388182693,11370,1505356813387970136,-0.0344145371471,-0.0474514282682,-0.395493406452,0.916596403572,1.0,0.0,0.0,0.0,1.0,0.0,0.0,0.0,100000.0,-0.00134187191725,-0.000141469761729,0.000357007724233,1.0,0.0,0.0,0.0,1.0,0.0,0.0,0.0,1.0,0.813376750052,-0.0526560177095,9.28967757225,0.1,0.0,0.0,0.0,0.1,0.0,0.0,0.0,0.1
1505356813396692992,11371,1505356813396525436,-0.0344149510106,-0.0474511281075,-0.395501400864,0.916592954098,1.0,0.0,0.0,0.0,1.0,0.0,0.0,0.0,100000.0,-0.000829618424177,6.10798597336e-05,0.000193253275938,1.0,0.0,0.0,0.0,1.0,0.0,0.0,0.0,1.0,0.813713571429,-0.0731167298742,9.28987851143,0.1,0.0,0.0,0.0,0.1,0.0,0.0,0.0,0.1
1505356813399015039,11372,1505356813398839458,-0.0344149510106,-0.0474511281075,-0.395501400864,0.916592954098,1.0,0.0,0.0,0.0,1.0,0.0,0.0,0.0,100000.0,-0.000614121556282,-0.000188458710909,0.000211218139157,1.0,0.0,0.0,0.0,1.0,0.0,0.0,0.0,1.0,0.814049954712,-0.105794660002,9.28999300003,0.1,0.0,0.0,0.0,0.1,0.0,0.0,0.0,0.1
1505356813403317321,11373,1505356813403137300,-0.0344233640049,-0.0474473763059,-0.395509809337,0.916589204175,1.0,0.0,0.0,0.0,1.0,0.0,0.0,0.0,100000.0,-0.00133914127946,-0.000390121713281,0.000522814341821,1.0,0.0,0.0,0.0,1.0,0.0,0.0,0.0,1.0,0.814261481166,-0.123279133998,9.2900747776,0.1,0.0,0.0,0.0,0.1,0.0,0.0,0.0,0.1
1505356813408179529,11374,1505356813408006894,-0.0344317759801,-0.047443624769,-0.395518217696,0.916585454141,1.0,0.0,0.0,0.0,1.0,0.0,0.0,0.0,100000.0,-0.00146518647671,0.000221937909373,0.000710427528247,1.0,0.0,0.0,0.0,1.0,0.0,0.0,0.0,1.0,0.814326392114,-0.125448868237,9.2901320219,0.1,0.0,0.0,0.0,0.1,0.0,0.0,0.0,0.1
1505356813413210787,11375,1505356813412952404,-0.0344397750781,-0.0474401730547,-0.395518631724,0.916585153618,1.0,0.0,0.0,0.0,1.0,0.0,0.0,0.0,100000.0,-0.00140899047256,0.000236252322793,0.00122317182831,1.0,0.0,0.0,0.0,1.0,0.0,0.0,0.0,1.0,0.81425870657,-0.119589569047,9.29004089832,0.1,0.0,0.0,0.0,0.1,0.0,0.0,0.0,0.1
1505356813418297161,11376,1505356813418111467,-0.0344397750781,-0.0474401730547,-0.395518631724,0.916585153618,1.0,0.0,0.0,0.0,1.0,0.0,0.0,0.0,100000.0,-0.000968165695667,0.000946989282966,0.000843174755573,1.0,0.0,0.0,0.0,1.0,0.0,0.0,0.0,1.0,0.814107199013,-0.107102316245,9.29003622532,0.1,0.0,0.0,0.0,0.1,0.0,0.0,0.0,0.1
1505356813423675853,11377,1505356813423482921,-0.0344401888435,-0.0474398726739,-0.395526626038,0.916581703924,1.0,0.0,0.0,0.0,1.0,0.0,0.0,0.0,100000.0,8.32118093967e-05,0.00117182917893,0.000655359588563,1.0,0.0,0.0,0.0,1.0,0.0,0.0,0.0,1.0,0.813996142149,-0.112641660683,9.29002687931,0.1,0.0,0.0,0.0,0.1,0.0,0.0,0.0,0.1
1505356813430628984,11378,1505356813430292602,-0.034445162017,-0.0474281172574,-0.395535128504,0.91657845634,1.0,0.0,0.0,0.0,1.0,0.0,0.0,0.0,100000.0,-0.0007962025702,0.0014891307801,-0.000542254652828,1.0,0.0,0.0,0.0,1.0,0.0,0.0,0.0,1.0,0.813942621648,-0.111416941136,9.29003622532,0.1,0.0,0.0,0.0,0.1,0.0,0.0,0.0,0.1
1505356813433613552,11379,1505356813433415884,-0.0344455756772,-0.0474278168297,-0.39554312276,0.916575006502,1.0,0.0,0.0,0.0,1.0,0.0,0.0,0.0,100000.0,-0.000287506729364,0.00157012976706,-0.00066908984445,1.0,0.0,0.0,0.0,1.0,0.0,0.0,0.0,1.0,0.813978107274,-0.103478319384,9.3049851656,0.1,0.0,0.0,0.0,0.1,0.0,0.0,0.0,0.1
1505356813438530095,11380,1505356813438362341,-0.0344425511468,-0.0474195121335,-0.395551241665,0.916572046135,1.0,0.0,0.0,0.0,1.0,0.0,0.0,0.0,100000.0,-0.00131884217262,0.00141822732985,-0.000858730636537,1.0,0.0,0.0,0.0,1.0,0.0,0.0,0.0,1.0,0.814094786346,-0.0816374463961,9.3232262373,0.1,0.0,0.0,0.0,0.1,0.0,0.0,0.0,0.1
1505356813444799809,11381,1505356813444459306,-0.0344349657784,-0.0474226637973,-0.395558822019,0.916568896708,1.0,0.0,0.0,0.0,1.0,0.0,0.0,0.0,100000.0,-0.00157019123435,0.000627234578133,-0.000188150675967,1.0,0.0,0.0,0.0,1.0,0.0,0.0,0.0,1.0,0.81423125267,-0.0450870059431,9.3571195364,0.1,0.0,0.0,0.0,0.1,0.0,0.0,0.0,0.1
1505356813448413070,11382,1505356813448108966,-0.034435379391,-0.0474223634584,-0.395566816191,0.916565446664,1.0,0.0,0.0,0.0,1.0,0.0,0.0,0.0,100000.0,-0.0015651807189,0.000590210780501,-7.88029283285e-05,1.0,0.0,0.0,0.0,1.0,0.0,0.0,0.0,1.0,0.814423502982,-0.0299175217748,9.37315903902,0.1,0.0,0.0,0.0,0.1,0.0,0.0,0.0,0.1
1505356813457363709,11383,1505356813457225906,-0.0344277941051,-0.0474255153206,-0.395574396463,0.916562297039,1.0,0.0,0.0,0.0,1.0,0.0,0.0,0.0,100000.0,-0.00249928981066,0.000321298837662,8.44856258482e-05,1.0,0.0,0.0,0.0,1.0,0.0,0.0,0.0,1.0,0.814567489922,-0.038296318613,9.37864806652,0.1,0.0,0.0,0.0,0.1,0.0,0.0,0.0,0.1
1505356813458536153,11384,1505356813458377939,-0.034424352477,-0.0474175084741,-0.395574490798,0.916562799854,1.0,0.0,0.0,0.0,1.0,0.0,0.0,0.0,100000.0,-0.00106861069798,0.00111523456872,0.000141276977956,1.0,0.0,0.0,0.0,1.0,0.0,0.0,0.0,1.0,0.814589175582,-0.065700211376,9.37212572098,0.1,0.0,0.0,0.0,0.1,0.0,0.0,0.0,0.1
1505356813464152526,11385,1505356813463959024,-0.0344327649149,-0.0474137559527,-0.395582898715,0.916559049211,1.0,0.0,0.0,0.0,1.0,0.0,0.0,0.0,100000.0,-0.00161655247211,0.00140083394945,1.34007714223e-05,1.0,0.0,0.0,0.0,1.0,0.0,0.0,0.0,1.0,0.814475125074,-0.111930442229,9.35953139067,0.1,0.0,0.0,0.0,0.1,0.0,0.0,0.0,0.1
1505356813470614641,11386,1505356813470447660,-0.0344293248592,-0.0474057529482,-0.39558299291,0.916559551747,1.0,0.0,0.0,0.0,1.0,0.0,0.0,0.0,100000.0,-0.000149834901094,0.000664714723825,0.00123383349273,1.0,0.0,0.0,0.0,1.0,0.0,0.0,0.0,1.0,0.814164370298,-0.12091137208,9.36574707031,0.1,0.0,0.0,0.0,0.1,0.0,0.0,0.0,0.1
1505356813473619858,11387,1505356813473442523,-0.0344377371662,-0.0474020003092,-0.395591400696,0.916555800986,1.0,0.0,0.0,0.0,1.0,0.0,0.0,0.0,100000.0,-0.000619672238827,0.00040704201092,0.000819606473669,1.0,0.0,0.0,0.0,1.0,0.0,0.0,0.0,1.0,0.813876104355,-0.128650633618,9.3636798501,0.1,0.0,0.0,0.0,0.1,0.0,0.0,0.0,0.1
1505356813478712289,11388,1505356813478511901,-0.0344457350519,-0.0473985483677,-0.395591814311,0.916555500447,1.0,0.0,0.0,0.0,1.0,0.0,0.0,0.0,100000.0,-0.000657834112644,-0.000958148390055,0.00189148751087,1.0,0.0,0.0,0.0,1.0,0.0,0.0,0.0,1.0,0.813627997041,-0.112885998562,9.37180036306,0.1,0.0,0.0,0.0,0.1,0.0,0.0,0.0,0.1
1505356813483690037,11389,1505356813483527349,-0.0344461484542,-0.0473982479349,-0.395599808367,0.916552050115,1.0,0.0,0.0,0.0,1.0,0.0,0.0,0.0,100000.0,-0.000529322773218,-0.000302536442177,0.00068976636976,1.0,0.0,0.0,0.0,1.0,0.0,0.0,0.0,1.0,0.813485397398,-0.104651955329,9.36810109615,0.1,0.0,0.0,0.0,0.1,0.0,0.0,0.0,0.1
1505356813490066942,11390,1505356813489858870,-0.0344461484542,-0.0473982479349,-0.395599808367,0.916552050115,1.0,0.0,0.0,0.0,1.0,0.0,0.0,0.0,100000.0,-0.000806029886007,-0.000450605526567,0.00049204705283,1.0,0.0,0.0,0.0,1.0,0.0,0.0,0.0,1.0,0.813406686485,-0.113517438248,9.35086997747,0.1,0.0,0.0,0.0,0.1,0.0,0.0,0.0,0.1
1505356813493627927,11391,1505356813493394748,-0.0344465634317,-0.0473979463519,-0.395607832904,0.916548586543,1.0,0.0,0.0,0.0,1.0,0.0,0.0,0.0,100000.0,3.16053628922e-05,2.15824693441e-05,0.00044504692778,1.0,0.0,0.0,0.0,1.0,0.0,0.0,0.0,1.0,0.813222175837,-0.0956262851134,9.33366748095,0.1,0.0,0.0,0.0,0.1,0.0,0.0,0.0,0.1
1505356813500047362,11392,1505356813499858682,-0.0344469768287,-0.0473976459119,-0.395615826899,0.916545136072,1.0,0.0,0.0,0.0,1.0,0.0,0.0,0.0,100000.0,-0.000424146652222,0.00018566660583,0.000159260816872,1.0,0.0,0.0,0.0,1.0,0.0,0.0,0.0,1.0,0.813063366711,-0.0880685223266,9.29801771641,0.1,0.0,0.0,0.0,0.1,0.0,0.0,0.0,0.1
1505356813503568479,11393,1505356813503401339,-0.0344469768287,-0.0473976459119,-0.395615826899,0.916545136072,1.0,0.0,0.0,0.0,1.0,0.0,0.0,0.0,100000.0,-0.000642292201519,-9.53301787376e-05,0.00109837483615,1.0,0.0,0.0,0.0,1.0,0.0,0.0,0.0,1.0,0.812867465615,-0.0477895767428,9.28434216976,0.1,0.0,0.0,0.0,0.1,0.0,0.0,0.0,0.1
1505356813508627947,11394,1505356813508389776,-0.0344393924579,-0.0474007976891,-0.395623407258,0.916541986084,1.0,0.0,0.0,0.0,1.0,0.0,0.0,0.0,100000.0,-0.00153621658683,0.000647600740194,-0.000177494017407,1.0,0.0,0.0,0.0,1.0,0.0,0.0,0.0,1.0,0.812826357782,-0.0303058260586,9.29300299883,0.1,0.0,0.0,0.0,0.1,0.0,0.0,0.0,0.1
1505356813513764955,11395,1505356813513543793,-0.0344318071887,-0.0474039500102,-0.395630987514,0.916538836,1.0,0.0,0.0,0.0,1.0,0.0,0.0,0.0,100000.0,-0.00188192736823,0.000418435782194,-0.00107453239616,1.0,0.0,0.0,0.0,1.0,0.0,0.0,0.0,1.0,0.81294259876,-0.0262895113323,9.31738848686,0.1,0.0,0.0,0.0,0.1,0.0,0.0,0.0,0.1
1505356813520212398,11396,1505356813520016953,-0.0344326340848,-0.047403349384,-0.395646975304,0.916531934583,1.0,0.0,0.0,0.0,1.0,0.0,0.0,0.0,100000.0,-0.00188997387886,0.000630455091596,-0.0017792454455,1.0,0.0,0.0,0.0,1.0,0.0,0.0,0.0,1.0,0.813167998195,-0.0298669036478,9.36480896473,0.1,0.0,0.0,0.0,0.1,0.0,0.0,0.0,0.1
1505356813531800479,11397,1505356813531508957,-0.0344250489255,-0.0474065019697,-0.395654555449,0.916528784234,1.0,0.0,0.0,0.0,1.0,0.0,0.0,0.0,100000.0,-0.00106303393841,-6.24228268862e-05,-0.00183728942648,1.0,0.0,0.0,0.0,1.0,0.0,0.0,0.0,1.0,0.813517816365,-0.0457982882857,9.3740352273,0.1,0.0,0.0,0.0,0.1,0.0,0.0,0.0,0.1
1505356813531812555,11398,1505356813531548850,-0.0344174663529,-0.0474096531304,-0.3956621661,0.916525620546,1.0,0.0,0.0,0.0,1.0,0.0,0.0,0.0,100000.0,-0.000941254256759,-0.000546962022781,-5.40120527148e-06,1.0,0.0,0.0,0.0,1.0,0.0,0.0,0.0,1.0,0.813819298148,-0.0373232316691,9.38240925074,0.1,0.0,0.0,0.0,0.1,0.0,0.0,0.0,0.1
1505356813533836884,11399,1505356813533689496,-0.0344098813037,-0.0474128059809,-0.395669746135,0.916522469932,1.0,0.0,0.0,0.0,1.0,0.0,0.0,0.0,100000.0,4.37907874584e-05,-0.000469716265798,0.000535650644451,1.0,0.0,0.0,0.0,1.0,0.0,0.0,0.0,1.0,0.814081351459,-0.03890063297,9.36734523773,0.1,0.0,0.0,0.0,0.1,0.0,0.0,0.0,0.1
1505356813538760458,11400,1505356813538615035,-0.034402297263,-0.0474159585522,-0.395677326165,0.916519319151,1.0,0.0,0.0,0.0,1.0,0.0,0.0,0.0,100000.0,-0.000541217625141,-0.000295177102089,0.000401932513341,1.0,0.0,0.0,0.0,1.0,0.0,0.0,0.0,1.0,0.814167656004,-0.0313051895238,9.35799514055,0.1,0.0,0.0,0.0,0.1,0.0,0.0,0.0,0.1
1505356813543650363,11401,1505356813543421779,-0.0343942987395,-0.0474194116515,-0.395676912347,0.916519619347,1.0,0.0,0.0,0.0,1.0,0.0,0.0,0.0,100000.0,-1.90325099538e-05,0.000162659212947,0.000426220125519,1.0,0.0,0.0,0.0,1.0,0.0,0.0,0.0,1.0,0.814078065753,-0.0337224172894,9.3666851759,0.1,0.0,0.0,0.0,0.1,0.0,0.0,0.0,0.1
1505356813550170401,11402,1505356813549979966,-0.0343832728353,-0.0474145622199,-0.395684586886,0.916516970677,1.0,0.0,0.0,0.0,1.0,0.0,0.0,0.0,100000.0,-0.000593304634094,0.000405080616474,-0.000708901381586,1.0,0.0,0.0,0.0,1.0,0.0,0.0,0.0,1.0,0.813881215453,-0.0378196128644,9.3480276227,0.1,0.0,0.0,0.0,0.1,0.0,0.0,0.0,0.1
1505356813556511856,11403,1505356813556249144,-0.0343836863772,-0.047414262332,-0.395692580605,0.916513519536,1.0,0.0,0.0,0.0,1.0,0.0,0.0,0.0,100000.0,-0.000632550567389,0.000381940975785,0.00139036565088,1.0,0.0,0.0,0.0,1.0,0.0,0.0,0.0,1.0,0.813672171533,-0.0515653595328,9.33974939585,0.1,0.0,0.0,0.0,0.1,0.0,0.0,0.0,0.1
1505356813562515017,11404,1505356813562336202,-0.0343836863772,-0.047414262332,-0.395692580605,0.916513519536,1.0,0.0,0.0,0.0,1.0,0.0,0.0,0.0,100000.0,-0.000655617564917,0.000653248338494,0.00136762368493,1.0,0.0,0.0,0.0,1.0,0.0,0.0,0.0,1.0,0.813580317795,-0.0725215150975,9.29943422079,0.1,0.0,0.0,0.0,0.1,0.0,0.0,0.0,0.1
1505356813563940004,11405,1505356813563780147,-0.0343836863772,-0.047414262332,-0.395692580605,0.916513519536,1.0,0.0,0.0,0.0,1.0,0.0,0.0,0.0,100000.0,-0.000875946134329,7.53812491894e-05,0.00243109185249,1.0,0.0,0.0,0.0,1.0,0.0,0.0,0.0,1.0,0.828892146051,-0.104835598916,9.2819922328,0.1,0.0,0.0,0.0,0.1,0.0,0.0,0.0,0.1
1505356813569137609,11406,1505356813568924739,-0.0343955394844,-0.0474185116883,-0.395700893485,0.916509265915,1.0,0.0,0.0,0.0,1.0,0.0,0.0,0.0,100000.0,-0.000518195331097,2.02432274818e-05,0.00167431635782,1.0,0.0,0.0,0.0,1.0,0.0,0.0,0.0,1.0,0.847736400366,-0.121420994215,9.27876260281,0.1,0.0,0.0,0.0,0.1,0.0,0.0,0.0,0.1
1505356813573854341,11407,1505356813573680318,-0.0344069790382,-0.0474230609305,-0.395701212754,0.916508463305,1.0,0.0,0.0,0.0,1.0,0.0,0.0,0.0,100000.0,-0.00132761895657,-0.000705832615495,0.000251300632954,1.0,0.0,0.0,0.0,1.0,0.0,0.0,0.0,1.0,0.882596208155,-0.127677590027,9.28346130848,0.1,0.0,0.0,0.0,0.1,0.0,0.0,0.0,0.1
1505356813580512046,11408,1505356813580233645,-0.0344142766685,-0.0474387696828,-0.395709017176,0.916504006766,1.0,0.0,0.0,0.0,1.0,0.0,0.0,0.0,100000.0,-0.00112693011761,0.00012643635273,0.000126233324409,1.0,0.0,0.0,0.0,1.0,0.0,0.0,0.0,1.0,0.89913893491,-0.119785826094,9.29992722273,0.1,0.0,0.0,0.0,0.1,0.0,0.0,0.0,0.1
1505356813584734777,11409,1505356813584096408,-0.0344261306527,-0.0474430178217,-0.395717360657,0.916499739259,1.0,0.0,0.0,0.0,1.0,0.0,0.0,0.0,100000.0,-0.00204074755311,0.000659549608827,-0.000773960258812,1.0,0.0,0.0,0.0,1.0,0.0,0.0,0.0,1.0,0.90471521616,-0.107587761059,9.29207015038,0.1,0.0,0.0,0.0,0.1,0.0,0.0,0.0,0.1
1505356813589055559,11410,1505356813588911639,-0.0344299857583,-0.047450720007,-0.395725259623,0.916495785123,1.0,0.0,0.0,0.0,1.0,0.0,0.0,0.0,100000.0,-0.000753108412027,0.00181975972373,0.000166759360582,1.0,0.0,0.0,0.0,1.0,0.0,0.0,0.0,1.0,0.897886277735,-0.112478123792,9.30867917538,0.1,0.0,0.0,0.0,0.1,0.0,0.0,0.0,0.1
1505356813597384266,11411,1505356813597199419,-0.0344379840738,-0.0474472664858,-0.395725673713,0.916495484615,1.0,0.0,0.0,0.0,1.0,0.0,0.0,0.0,100000.0,-0.000381894409657,0.00193589366972,-0.000286725815386,1.0,0.0,0.0,0.0,1.0,0.0,0.0,0.0,1.0,0.884750536084,-0.109979837202,9.31951295137,0.1,0.0,0.0,0.0,0.1,0.0,0.0,0.0,0.1
1505356813599552056,11412,1505356813599365674,-0.0344418392793,-0.0474549685349,-0.395733572677,0.916491530307,1.0,0.0,0.0,0.0,1.0,0.0,0.0,0.0,100000.0,0.00065653771162,0.00144369713962,-6.67081912979e-05,1.0,0.0,0.0,0.0,1.0,0.0,0.0,0.0,1.0,0.891032733023,-0.117875726521,9.34120386839,0.1,0.0,0.0,0.0,0.1,0.0,0.0,0.0,0.1
1505356813604013517,11413,1505356813603878129,-0.0344456946191,-0.0474626705167,-0.395741471572,0.916487575861,1.0,0.0,0.0,0.0,1.0,0.0,0.0,0.0,100000.0,0.000438861548901,0.00106772407889,-6.50094007142e-05,1.0,0.0,0.0,0.0,1.0,0.0,0.0,0.0,1.0,0.88905210942,-0.113556830212,9.35747818947,0.1,0.0,0.0,0.0,0.1,0.0,0.0,0.0,0.1
1505356813608977496,11414,1505356813608781372,-0.034457133348,-0.0474672196436,-0.395741791154,0.916486772275,1.0,0.0,0.0,0.0,1.0,0.0,0.0,0.0,100000.0,-0.000895746052265,-0.000323932617903,0.000735503039323,1.0,0.0,0.0,0.0,1.0,0.0,0.0,0.0,1.0,0.897677014768,-0.111882416159,9.3454913497,0.1,0.0,0.0,0.0,0.1,0.0,0.0,0.0,0.1
1505356813614110708,11415,1505356813613910465,-0.034464431999,-0.0474829276123,-0.39574959534,0.916482314232,1.0,0.0,0.0,0.0,1.0,0.0,0.0,0.0,100000.0,-0.000892579555511,-4.99784946442e-05,0.00143428484444,1.0,0.0,0.0,0.0,1.0,0.0,0.0,0.0,1.0,0.894209353626,-0.113073083013,9.35819140673,0.1,0.0,0.0,0.0,0.1,0.0,0.0,0.0,0.1
1505356813619418968,11416,1505356813619202241,-0.0344758716929,-0.0474874762165,-0.395749915124,0.916481510208,1.0,0.0,0.0,0.0,1.0,0.0,0.0,0.0,100000.0,-0.00196605548263,-0.00125300884247,0.00165718630888,1.0,0.0,0.0,0.0,1.0,0.0,0.0,0.0,1.0,0.891964486241,-0.112012502737,9.35371233225,0.1,0.0,0.0,0.0,0.1,0.0,0.0,0.0,0.1
1505356813624176200,11417,1505356813623993013,-0.0344797274339,-0.0474951778251,-0.395757813911,0.916477555212,1.0,0.0,0.0,0.0,1.0,0.0,0.0,0.0,100000.0,-0.000518724322319,-1.58119946718e-05,0.000318191974657,1.0,0.0,0.0,0.0,1.0,0.0,0.0,0.0,1.0,0.893061473966,-0.114775243029,9.37228810787,0.1,0.0,0.0,0.0,0.1,0.0,0.0,0.0,0.1
1505356813630481412,11418,1505356813630244976,-0.0344915814312,-0.0474994254922,-0.395766127175,0.916473299103,1.0,0.0,0.0,0.0,1.0,0.0,0.0,0.0,100000.0,-0.000814966857433,-8.78050923347e-05,-0.000717955175787,1.0,0.0,0.0,0.0,1.0,0.0,0.0,0.0,1.0,0.891041786969,-0.113871536963,9.37740855217,0.1,0.0,0.0,0.0,0.1,0.0,0.0,0.0,0.1
1505356813634534321,11419,1505356813634244429,-0.0344954389879,-0.047507125749,-0.395774056401,0.916469330623,1.0,0.0,0.0,0.0,1.0,0.0,0.0,0.0,100000.0,-0.000685561448336,0.000781521201134,-0.00168478349224,1.0,0.0,0.0,0.0,1.0,0.0,0.0,0.0,1.0,0.893193559349,-0.113624616154,9.35096110106,0.1,0.0,0.0,0.0,0.1,0.0,0.0,0.0,0.1
1505356813639167638,11420,1505356813638990690,-0.0344992950977,-0.0475148270867,-0.395781955049,0.916465375179,1.0,0.0,0.0,0.0,1.0,0.0,0.0,0.0,100000.0,-0.00123877462465,0.00106438063085,-0.00158120004926,1.0,0.0,0.0,0.0,1.0,0.0,0.0,0.0,1.0,0.891880664229,-0.0990250833333,9.33789246082,0.1,0.0,0.0,0.0,0.1,0.0,0.0,0.0,0.1
1505356813645451180,11421,1505356813645296906,-0.0345111500453,-0.0475190785,-0.39579026825,0.916461118248,1.0,0.0,0.0,0.0,1.0,0.0,0.0,0.0,100000.0,-0.00233430042863,0.000635888427496,-0.0010431446135,1.0,0.0,0.0,0.0,1.0,0.0,0.0,0.0,1.0,0.875695349276,-0.0803776701912,9.29033296108,0.1,0.0,0.0,0.0,0.1,0.0,0.0,0.0,0.1
1505356813649580599,11422,1505356813649322664,-0.0345035674668,-0.0475222312396,-0.395797846817,0.916457967299,1.0,0.0,0.0,0.0,1.0,0.0,0.0,0.0,100000.0,-0.00152899697423,0.00141733326018,-0.00112440250814,1.0,0.0,0.0,0.0,1.0,0.0,0.0,0.0,1.0,0.857479541004,-0.0471079798415,9.28703148365,0.1,0.0,0.0,0.0,0.1,0.0,0.0,0.0,0.1
1505356813655581110,11423,1505356813655420136,-0.0345039819478,-0.0475219303025,-0.395805840022,0.91645451517,1.0,0.0,0.0,0.0,1.0,0.0,0.0,0.0,100000.0,-0.00182029604912,0.000526182353497,-0.000343445688486,1.0,0.0,0.0,0.0,1.0,0.0,0.0,0.0,1.0,0.822231654823,-0.0308340375312,9.27868140936,0.1,0.0,0.0,0.0,0.1,0.0,0.0,0.0,0.1
1505356813665418469,11424,1505356813665109997,-0.0344963984984,-0.0475250836523,-0.395813418457,0.916451364058,1.0,0.0,0.0,0.0,1.0,0.0,0.0,0.0,100000.0,-0.000870883464813,0.000838242471218,-0.000366492196918,1.0,0.0,0.0,0.0,1.0,0.0,0.0,0.0,1.0,0.807129965723,-0.0250874928199,9.28398293257,0.1,0.0,0.0,0.0,0.1,0.0,0.0,0.0,0.1
1505356813666430500,11425,1505356813666249031,-0.034488815104,-0.0475282371344,-0.395820996837,0.916448212814,1.0,0.0,0.0,0.0,1.0,0.0,0.0,0.0,100000.0,-0.00143975391984,-0.000273436337011,0.000685662962496,1.0,0.0,0.0,0.0,1.0,0.0,0.0,0.0,1.0,0.80187458843,-0.0316398455296,9.29917603731,0.1,0.0,0.0,0.0,0.1,0.0,0.0,0.0,0.1
1505356813669308797,11426,1505356813669141276,-0.0344892312196,-0.0475279351778,-0.395829020465,0.916444747306,1.0,0.0,0.0,0.0,1.0,0.0,0.0,0.0,100000.0,-0.00131148472428,-0.000292940065265,0.00100275792647,1.0,0.0,0.0,0.0,1.0,0.0,0.0,0.0,1.0,0.80891366601,-0.0592529898509,9.28813664913,0.1,0.0,0.0,0.0,0.1,0.0,0.0,0.0,0.1
1505356813675811726,11427,1505356813675683211,-0.0344892312196,-0.0475279351778,-0.395829020465,0.916444747306,1.0,0.0,0.0,0.0,1.0,0.0,0.0,0.0,100000.0,-0.00149745121598,0.000331550836563,0.00117737869732,1.0,0.0,0.0,0.0,1.0,0.0,0.0,0.0,1.0,0.822393749654,-0.0717227645218,9.29432370663,0.1,0.0,0.0,0.0,0.1,0.0,0.0,0.0,0.1
1505356813679493004,11428,1505356813679309407,-0.0344972290897,-0.047524480751,-0.395829435229,0.916444446282,1.0,0.0,0.0,0.0,1.0,0.0,0.0,0.0,100000.0,-0.00111895427108,0.00056915730238,0.00195582048036,1.0,0.0,0.0,0.0,1.0,0.0,0.0,0.0,1.0,0.815767210722,-0.108216225356,9.28541871309,0.1,0.0,0.0,0.0,0.1,0.0,0.0,0.0,0.1
1505356813686218203,11429,1505356813686009893,-0.0344937852669,-0.0475164749158,-0.395829530057,0.916444950079,1.0,0.0,0.0,0.0,1.0,0.0,0.0,0.0,100000.0,-0.00131621211767,0.00164605490863,0.0016555795446,1.0,0.0,0.0,0.0,1.0,0.0,0.0,0.0,1.0,0.817916427553,-0.116296506673,9.28870149851,0.1,0.0,0.0,0.0,0.1,0.0,0.0,0.0,0.1
1505356813689548185,11430,1505356813689149364,-0.0345021975394,-0.047512719563,-0.39583793781,0.916441196605,1.0,0.0,0.0,0.0,1.0,0.0,0.0,0.0,100000.0,-0.0013512223959,0.000532984733582,0.00220473017544,1.0,0.0,0.0,0.0,1.0,0.0,0.0,0.0,1.0,0.809212884307,-0.125702433474,9.29227108955,0.1,0.0,0.0,0.0,0.1,0.0,0.0,0.0,0.1
1505356813696626873,11431,1505356813696345656,-0.0345101944251,-0.0475092654702,-0.395838352392,0.916440895503,1.0,0.0,0.0,0.0,1.0,0.0,0.0,0.0,100000.0,-0.00104914233088,0.000522028654814,0.00164589285851,1.0,0.0,0.0,0.0,1.0,0.0,0.0,0.0,1.0,0.812642723322,-0.121394434758,9.28906015158,0.1,0.0,0.0,0.0,0.1,0.0,0.0,0.0,0.1
1505356813699932513,11432,1505356813699766142,-0.0345101944251,-0.0475092654702,-0.395838352392,0.916440895503,1.0,0.0,0.0,0.0,1.0,0.0,0.0,0.0,100000.0,-0.000938273966312,-0.000440774485469,0.000814145430923,1.0,0.0,0.0,0.0,1.0,0.0,0.0,0.0,1.0,0.814996749163,-0.107445270941,9.29187855721,0.1,0.0,0.0,0.0,0.1,0.0,0.0,0.0,0.1
1505356813704280868,11433,1505356813704128368,-0.0345186065993,-0.0475055098973,-0.395846760046,0.91643714181,1.0,0.0,0.0,0.0,1.0,0.0,0.0,0.0,100000.0,-0.000501934438944,-0.000788537785411,0.000688700005412,1.0,0.0,0.0,0.0,1.0,0.0,0.0,0.0,1.0,0.813651946187,-0.115245062485,9.28893573284,0.1,0.0,0.0,0.0,0.1,0.0,0.0,0.0,0.1
1505356813709703753,11434,1505356813709262498,-0.0345270177547,-0.0475017545895,-0.395855167586,0.916433388006,1.0,0.0,0.0,0.0,1.0,0.0,0.0,0.0,100000.0,-0.0018599294126,-0.000326318666339,-0.000560900196433,1.0,0.0,0.0,0.0,1.0,0.0,0.0,0.0,1.0,0.815382929146,-0.110486374423,9.28949532509,0.1,0.0,0.0,0.0,0.1,0.0,0.0,0.0,0.1
1505356813714937515,11435,1505356813714700889,-0.0345308761417,-0.0475094591662,-0.39586306601,0.916429431463,1.0,0.0,0.0,0.0,1.0,0.0,0.0,0.0,100000.0,-0.00219309702516,-0.0011763125658,-0.00036610616371,1.0,0.0,0.0,0.0,1.0,0.0,0.0,0.0,1.0,0.812629580498,-0.104491266049,9.29067292213,0.1,0.0,0.0,0.0,0.1,0.0,0.0,0.0,0.1
1505356813719652029,11436,1505356813719503773,-0.0345392882175,-0.0475057031972,-0.395871473567,0.916425677373,1.0,0.0,0.0,0.0,1.0,0.0,0.0,0.0,100000.0,-0.00254143774509,-4.38187271357e-05,-0.00159909413196,1.0,0.0,0.0,0.0,1.0,0.0,0.0,0.0,1.0,0.81319924891,-0.0830072024837,9.28932359219,0.1,0.0,0.0,0.0,0.1,0.0,0.0,0.0,0.1
1505356813724763824,11437,1505356813724634880,-0.0345317048783,-0.0475088568119,-0.395879051892,0.916422525998,1.0,0.0,0.0,0.0,1.0,0.0,0.0,0.0,100000.0,-0.00171263515949,-0.000343700870872,-0.00151041243225,1.0,0.0,0.0,0.0,1.0,0.0,0.0,0.0,1.0,0.813598644733,-0.0459678079002,9.29040480852,0.1,0.0,0.0,0.0,0.1,0.0,0.0,0.0,0.1
1505356813732885894,11438,1505356813732695773,-0.0345325351859,-0.0475082532936,-0.39589506816,0.916415607074,1.0,0.0,0.0,0.0,1.0,0.0,0.0,0.0,100000.0,-0.00121411681175,0.000449081882834,-0.00176001992077,1.0,0.0,0.0,0.0,1.0,0.0,0.0,0.0,1.0,0.812775319815,-0.0316837599035,9.28936156034,0.1,0.0,0.0,0.0,0.1,0.0,0.0,0.0,0.1
1505356813734534255,11439,1505356813734387055,-0.0345215084718,-0.0475034011939,-0.395902741083,0.916412959277,1.0,0.0,0.0,0.0,1.0,0.0,0.0,0.0,100000.0,-0.00136679038405,0.00076755322516,-0.00109285721555,1.0,0.0,0.0,0.0,1.0,0.0,0.0,0.0,1.0,0.813536508381,-0.023511558678,9.28941880465,0.1,0.0,0.0,0.0,0.1,0.0,0.0,0.0,0.1
1505356813739556370,11440,1505356813739398566,-0.0345139252235,-0.0475065552365,-0.395910319317,0.916409807473,1.0,0.0,0.0,0.0,1.0,0.0,0.0,0.0,100000.0,-0.00131180137396,-5.79748302698e-05,-0.000107635743916,1.0,0.0,0.0,0.0,1.0,0.0,0.0,0.0,1.0,0.812739542127,-0.0328149486333,9.28989778757,0.1,0.0,0.0,0.0,0.1,0.0,0.0,0.0,0.1
1505356813749637173,11441,1505356813749399823,-0.0345059286091,-0.0475100099573,-0.395909904759,0.916410108608,1.0,0.0,0.0,0.0,1.0,0.0,0.0,0.0,100000.0,-0.000622246414423,0.000629406480584,0.000265464186668,1.0,0.0,0.0,0.0,1.0,0.0,0.0,0.0,1.0,0.813203045726,-0.0449758851901,9.28944275379,0.1,0.0,0.0,0.0,0.1,0.0,0.0,0.0,0.1
1505356813750561716,11442,1505356813750437175,-0.0344983454433,-0.0475131641983,-0.395917482911,0.916406956606,1.0,0.0,0.0,0.0,1.0,0.0,0.0,0.0,100000.0,0.000354774296284,1.67917460203e-05,0.000839352840558,1.0,0.0,0.0,0.0,1.0,0.0,0.0,0.0,1.0,0.813737520576,-0.0380336264148,9.28992173672,0.1,0.0,0.0,0.0,0.1,0.0,0.0,0.0,0.1
1505356813754735630,11443,1505356813754586749,-0.0344907623325,-0.0475163185716,-0.395925061008,0.916403804471,1.0,0.0,0.0,0.0,1.0,0.0,0.0,0.0,100000.0,0.000654220581055,0.000846860930324,2.02855444513e-05,1.0,0.0,0.0,0.0,1.0,0.0,0.0,0.0,1.0,0.813831783831,-0.0412637720816,9.28961507082,0.1,0.0,0.0,0.0,0.1,0.0,0.0,0.0,0.1
1505356813763044631,11444,1505356813762897379,-0.03448318023,-0.0475194726653,-0.395932639099,0.916400652169,1.0,0.0,0.0,0.0,1.0,0.0,0.0,0.0,100000.0,-0.000102575868368,0.0005553420051,-2.54513597611e-05,1.0,0.0,0.0,0.0,1.0,0.0,0.0,0.0,1.0,0.814450737834,-0.0323244657367,9.28957710266,0.1,0.0,0.0,0.0,0.1,0.0,0.0,0.0,0.1
1505356813764877582,11445,1505356813764684826,-0.0344755988113,-0.0475226261554,-0.395940247592,0.916397486589,1.0,0.0,0.0,0.0,1.0,0.0,0.0,0.0,100000.0,-0.00160843133926,-0.000221341848373,-0.000250750745181,1.0,0.0,0.0,0.0,1.0,0.0,0.0,0.0,1.0,0.814327998459,-0.0373759695329,9.28976811171,0.1,0.0,0.0,0.0,0.1,0.0,0.0,0.0,0.1
1505356813771359829,11446,1505356813771173561,-0.0344760132957,-0.0475223254622,-0.39594824027,0.916394033218,1.0,0.0,0.0,0.0,1.0,0.0,0.0,0.0,100000.0,-0.00190436840057,0.000116162002087,-0.000202275725314,1.0,0.0,0.0,0.0,1.0,0.0,0.0,0.0,1.0,0.8144296363,-0.0399701531045,9.28956249952,0.1,0.0,0.0,0.0,0.1,0.0,0.0,0.0,0.1
1505356813775667522,11447,1505356813775482518,-0.0344764277776,-0.0475220247654,-0.395956232917,0.916390579777,1.0,0.0,0.0,0.0,1.0,0.0,0.0,0.0,100000.0,-0.00199466943741,-0.000313697382808,7.83497816883e-05,1.0,0.0,0.0,0.0,1.0,0.0,0.0,0.0,1.0,0.81442489028,-0.0386727236211,9.2897587657,0.1,0.0,0.0,0.0,0.1,0.0,0.0,0.0,0.1
1505356813780482174,11448,1505356813780299460,-0.0344688458403,-0.0475251792561,-0.395963810843,0.916387427078,1.0,0.0,0.0,0.0,1.0,0.0,0.0,0.0,100000.0,-0.00100361183286,0.00089449994266,-0.000661810568999,1.0,0.0,0.0,0.0,1.0,0.0,0.0,0.0,1.0,0.814131294191,-0.0405408619903,9.2896536231,0.1,0.0,0.0,0.0,0.1,0.0,0.0,0.0,0.1
1505356813785072783,11449,1505356813784804787,-0.0344612630047,-0.047528334291,-0.395971388665,0.916384274282,1.0,0.0,0.0,0.0,1.0,0.0,0.0,0.0,100000.0,-0.00095684081316,8.96845012903e-05,-0.000786385615356,1.0,0.0,0.0,0.0,1.0,0.0,0.0,0.0,1.0,0.814016294479,-0.0370432872325,9.28964369297,0.1,0.0,0.0,0.0,0.1,0.0,0.0,0.0,0.1
1505356813789844729,11450,1505356813789648348,-0.0344536802242,-0.0475314894581,-0.395978966432,0.916381121353,1.0,0.0,0.0,0.0,1.0,0.0,0.0,0.0,100000.0,-0.000905454158783,-0.00040871463716,-0.00112377014011,1.0,0.0,0.0,0.0,1.0,0.0,0.0,0.0,1.0,0.813673193753,-0.0375332932454,9.2897015214,0.1,0.0,0.0,0.0,0.1,0.0,0.0,0.0,0.1
1505356813795396303,11451,1505356813795175271,-0.034454094786,-0.0475311889561,-0.395986958966,0.916377667645,1.0,0.0,0.0,0.0,1.0,0.0,0.0,0.0,100000.0,-0.00147647038102,-0.000746671110392,-0.00123369088396,1.0,0.0,0.0,0.0,1.0,0.0,0.0,0.0,1.0,0.813551841676,-0.0525902442634,9.2897108674,0.1,0.0,0.0,0.0,0.1,0.0,0.0,0.0,0.1
1505356813799902642,11452,1505356813799730683,-0.0344545109274,-0.0475308873034,-0.395994981976,0.916374200684,1.0,0.0,0.0,0.0,1.0,0.0,0.0,0.0,100000.0,-0.00200897082686,-0.000485422089696,-0.000233992934227,1.0,0.0,0.0,0.0,1.0,0.0,0.0,0.0,1.0,0.81351942271,-0.0699910696596,9.28986390829,0.1,0.0,0.0,0.0,0.1,0.0,0.0,0.0,0.1
1505356813804952175,11453,1505356813804787146,-0.0344629227082,-0.0475271308493,-0.396003389238,0.91637044611,1.0,0.0,0.0,0.0,1.0,0.0,0.0,0.0,100000.0,-0.00242715724744,0.000714080408216,-0.000582444481552,1.0,0.0,0.0,0.0,1.0,0.0,0.0,0.0,1.0,0.813476854563,-0.104955572821,9.28999300003,0.1,0.0,0.0,0.0,0.1,0.0,0.0,0.0,0.1
1505356813813219974,11454,1505356813813019027,-0.0344709199298,-0.0475236749008,-0.396003803995,0.916370145315,1.0,0.0,0.0,0.0,1.0,0.0,0.0,0.0,100000.0,-0.00254378095269,0.000582879409194,0.000694467918947,1.0,0.0,0.0,0.0,1.0,0.0,0.0,0.0,1.0,0.813499343395,-0.120098150708,9.2900747776,0.1,0.0,0.0,0.0,0.1,0.0,0.0,0.0,0.1
1505356813815248674,11455,1505356813815015804,-0.034479330659,-0.0475199186385,-0.396012211109,0.916366390557,1.0,0.0,0.0,0.0,1.0,0.0,0.0,0.0,100000.0,-0.0018915720284,0.000363791390555,-5.47495437786e-05,1.0,0.0,0.0,0.0,1.0,0.0,0.0,0.0,1.0,0.813460499048,-0.125916469842,9.29011274576,0.1,0.0,0.0,0.0,0.1,0.0,0.0,0.0,0.1
1505356813819896726,11456,1505356813819746923,-0.0344877422759,-0.0475161618176,-0.396020618206,0.916362635617,1.0,0.0,0.0,0.0,1.0,0.0,0.0,0.0,100000.0,-0.00120763108134,-0.000381397083402,0.000515122432262,1.0,0.0,0.0,0.0,1.0,0.0,0.0,0.0,1.0,0.813533660769,-0.119219662435,9.3050424099,0.1,0.0,0.0,0.0,0.1,0.0,0.0,0.0,0.1
1505356813825140947,11457,1505356813824809313,-0.0344877422759,-0.0475161618176,-0.396020618206,0.916362635617,1.0,0.0,0.0,0.0,1.0,0.0,0.0,0.0,100000.0,-0.00027235224843,-0.000191563740373,0.000334697891958,1.0,0.0,0.0,0.0,1.0,0.0,0.0,0.0,1.0,0.813701669872,-0.105819722638,9.32336467505,0.1,0.0,0.0,0.0,0.1,0.0,0.0,0.0,0.1
1505356813830640810,11458,1505356813830353181,-0.034496152874,-0.0475124052618,-0.396029025189,0.916358880565,1.0,0.0,0.0,0.0,1.0,0.0,0.0,0.0,100000.0,-0.000763833522797,-5.32679259777e-05,0.000685539038386,1.0,0.0,0.0,0.0,1.0,0.0,0.0,0.0,1.0,0.813887348771,-0.11191953551,9.35743496418,0.1,0.0,0.0,0.0,0.1,0.0,0.0,0.0,0.1
1505356813834916531,11459,1505356813834732776,-0.0344927089402,-0.0475044039908,-0.396029120121,0.916359384002,1.0,0.0,0.0,0.0,1.0,0.0,0.0,0.0,100000.0,-0.001510232687,0.000110018998384,0.00167488609441,1.0,0.0,0.0,0.0,1.0,0.0,0.0,0.0,1.0,0.814044259489,-0.109429043345,9.3735615015,0.1,0.0,0.0,0.0,0.1,0.0,0.0,0.0,0.1
1505356813840162242,11460,1505356813839938488,-0.0345007060652,-0.0475009478178,-0.39602953468,0.916359082947,1.0,0.0,0.0,0.0,1.0,0.0,0.0,0.0,100000.0,-0.00264141336083,-0.000607779249549,0.00159012759104,1.0,0.0,0.0,0.0,1.0,0.0,0.0,0.0,1.0,0.814086681604,-0.117978706025,9.37904001474,0.1,0.0,0.0,0.0,0.1,0.0,0.0,0.0,0.1
1505356813845805021,11461,1505356813845110896,-0.0345171135893,-0.0474937348212,-0.396038355995,0.916355026506,1.0,0.0,0.0,0.0,1.0,0.0,0.0,0.0,100000.0,-0.0030201151967,-0.000960849225521,0.0020549078472,1.0,0.0,0.0,0.0,1.0,0.0,0.0,0.0,1.0,0.814044186473,-0.114864030108,9.37236521244,0.1,0.0,0.0,0.0,0.1,0.0,0.0,0.0,0.1
1505356813851478921,11462,1505356813851235964,-0.0345205575798,-0.0475017360646,-0.396038261268,0.916354522981,1.0,0.0,0.0,0.0,1.0,0.0,0.0,0.0,100000.0,-0.00161012262106,-0.000792391598225,0.00104615278542,1.0,0.0,0.0,0.0,1.0,0.0,0.0,0.0,1.0,0.813952989876,-0.112881818414,9.35954073668,0.1,0.0,0.0,0.0,0.1,0.0,0.0,0.0,0.1
1505356813855090788,11463,1505356813854871983,-0.0345255248787,-0.0474899774425,-0.396046762765,0.916351271008,1.0,0.0,0.0,0.0,1.0,0.0,0.0,0.0,100000.0,-0.000814277678728,-0.000212013721466,0.000690557993948,1.0,0.0,0.0,0.0,1.0,0.0,0.0,0.0,1.0,0.813784615695,-0.11417447906,9.36569449902,0.1,0.0,0.0,0.0,0.1,0.0,0.0,0.0,0.1
1505356813863110548,11464,1505356813862911922,-0.0345255248787,-0.0474899774425,-0.396046762765,0.916351271008,1.0,0.0,0.0,0.0,1.0,0.0,0.0,0.0,100000.0,0.000593867152929,0.000518938526511,-0.000200249254704,1.0,0.0,0.0,0.0,1.0,0.0,0.0,0.0,1.0,0.813608720899,-0.112528039142,9.34863511324,0.1,0.0,0.0,0.0,0.1,0.0,0.0,0.0,0.1
1505356813865609632,11465,1505356813865395279,-0.0345259406594,-0.0474896751645,-0.396054785544,0.916347803524,1.0,0.0,0.0,0.0,1.0,0.0,0.0,0.0,100000.0,-0.000244602560997,0.000300200656056,-0.000442882534117,1.0,0.0,0.0,0.0,1.0,0.0,0.0,0.0,1.0,0.813451810181,-0.115086025186,9.33844796419,0.1,0.0,0.0,0.0,0.1,0.0,0.0,0.0,0.1
1505356813870099308,11466,1505356813869882485,-0.0345263548564,-0.0474893740322,-0.396062777788,0.916344349154,1.0,0.0,0.0,0.0,1.0,0.0,0.0,0.0,100000.0,-0.000880025327206,4.43626195192e-05,-0.00049081875477,1.0,0.0,0.0,0.0,1.0,0.0,0.0,0.0,1.0,0.813398070633,-0.0998500784859,9.30066906214,0.1,0.0,0.0,0.0,0.1,0.0,0.0,0.0,0.1
1505356813875769195,11467,1505356813875547207,-0.0345347650613,-0.0474856167718,-0.396071184377,0.916340593398,1.0,0.0,0.0,0.0,1.0,0.0,0.0,0.0,100000.0,-0.00162648037076,-0.000326877459884,3.56393029506e-05,1.0,0.0,0.0,0.0,1.0,0.0,0.0,0.0,1.0,0.813479337096,-0.0812057593837,9.28215987682,0.1,0.0,0.0,0.0,0.1,0.0,0.0,0.0,0.1
1505356813880813271,11468,1505356813880678549,-0.034535179223,-0.0474853155626,-0.396079176558,0.916337138885,1.0,0.0,0.0,0.0,1.0,0.0,0.0,0.0,100000.0,-0.00158163160086,-0.00022492185235,0.000392919260776,1.0,0.0,0.0,0.0,1.0,0.0,0.0,0.0,1.0,0.813666038215,-0.0630649838597,9.27786772251,0.1,0.0,0.0,0.0,0.1,0.0,0.0,0.0,0.1
1505356813885789487,11469,1505356813885069867,-0.0345271832427,-0.0474887717568,-0.396078762185,0.916337440204,1.0,0.0,0.0,0.0,1.0,0.0,0.0,0.0,100000.0,-0.000933062285185,-2.20518559217e-05,0.000408334482927,1.0,0.0,0.0,0.0,1.0,0.0,0.0,0.0,1.0,0.813909618556,-0.0646164486185,9.28301678896,0.1,0.0,0.0,0.0,0.1,0.0,0.0,0.0,0.1
1505356813890401281,11470,1505356813890085134,-0.0345275974319,-0.0474884706136,-0.396086754338,0.916333985625,1.0,0.0,0.0,0.0,1.0,0.0,0.0,0.0,100000.0,-0.000306643545628,0.000104732818727,0.000400193908717,1.0,0.0,0.0,0.0,1.0,0.0,0.0,0.0,1.0,0.814134652913,-0.0939762674272,9.29856854677,0.1,0.0,0.0,0.0,0.1,0.0,0.0,0.0,0.1
1505356813900413136,11471,1505356813900142842,-0.0345360075385,-0.0474847131332,-0.39609516083,0.916330229649,1.0,0.0,0.0,0.0,1.0,0.0,0.0,0.0,100000.0,0.000295147299767,-4.63984906673e-05,-1.12778507173e-05,1.0,0.0,0.0,0.0,1.0,0.0,0.0,0.0,1.0,0.814261481166,-0.116617145948,9.29179736376,0.1,0.0,0.0,0.0,0.1,0.0,0.0,0.0,0.1
1505356813901605933,11472,1505356813901472672,-0.0345360075385,-0.0474847131332,-0.39609516083,0.916330229649,1.0,0.0,0.0,0.0,1.0,0.0,0.0,0.0,100000.0,0.000276226550341,-7.45635552448e-05,0.000942839425988,1.0,0.0,0.0,0.0,1.0,0.0,0.0,0.0,1.0,0.814288496971,-0.134485627711,9.2933044076,0.1,0.0,0.0,0.0,0.1,0.0,0.0,0.0,0.1
1505356813905434596,11473,1505356813905128458,-0.0345360075385,-0.0474847131332,-0.39609516083,0.916330229649,1.0,0.0,0.0,0.0,1.0,0.0,0.0,0.0,100000.0,0.000499598681927,9.64924693108e-05,0.00133025157265,1.0,0.0,0.0,0.0,1.0,0.0,0.0,0.0,1.0,0.814206208289,-0.12191814892,9.28560504913,0.1,0.0,0.0,0.0,0.1,0.0,0.0,0.0,0.1
1505356813910590524,11474,1505356813910394905,-0.0345444185328,-0.047480955094,-0.396103567305,0.916326473491,1.0,0.0,0.0,0.0,1.0,0.0,0.0,0.0,100000.0,-0.000575929880142,-1.50483101606e-05,0.00203561969101,1.0,0.0,0.0,0.0,1.0,0.0,0.0,0.0,1.0,0.814097706974,-0.110767758638,9.28839015961,0.1,0.0,0.0,0.0,0.1,0.0,0.0,0.0,0.1
1505356813918452221,11475,1505356813918294113,-0.0345444185328,-0.047480955094,-0.396103567305,0.916326473491,1.0,0.0,0.0,0.0,1.0,0.0,0.0,0.0,100000.0,-0.000435054302216,0.000610815361142,0.00165406474844,1.0,0.0,0.0,0.0,1.0,0.0,0.0,0.0,1.0,0.813993367553,-0.108847062662,9.30650681257,0.1,0.0,0.0,0.0,0.1,0.0,0.0,0.0,0.1
1505356813920444145,11476,1505356813920256369,-0.034552831042,-0.0474771957578,-0.396112004218,0.916322703999,1.0,0.0,0.0,0.0,1.0,0.0,0.0,0.0,100000.0,-0.00192236155272,3.53716313839e-06,0.000168194063008,1.0,0.0,0.0,0.0,1.0,0.0,0.0,0.0,1.0,0.81392108202,-0.110239070281,9.32342250347,0.1,0.0,0.0,0.0,0.1,0.0,0.0,0.0,0.1
1505356813928247092,11477,1505356813928025943,-0.034557382294,-0.0474657382929,-0.396112512877,0.916322906054,1.0,0.0,0.0,0.0,1.0,0.0,0.0,0.0,100000.0,-0.00198724493384,0.000899452716112,8.78879800439e-05,1.0,0.0,0.0,0.0,1.0,0.0,0.0,0.0,1.0,0.813885742426,-0.12014397718,9.35890403986,0.1,0.0,0.0,0.0,0.1,0.0,0.0,0.0,0.1
1505356813930738287,11478,1505356813930537703,-0.0345657930589,-0.0474619799159,-0.396120919123,0.916319149558,1.0,0.0,0.0,0.0,1.0,0.0,0.0,0.0,100000.0,-0.00277312844992,0.00045402534306,-0.000967426458374,1.0,0.0,0.0,0.0,1.0,0.0,0.0,0.0,1.0,0.813885742426,-0.114997119457,9.37261404991,0.1,0.0,0.0,0.0,0.1,0.0,0.0,0.0,0.1
1505356813935290129,11479,1505356813935140456,-0.0345742028049,-0.0474582218042,-0.396129325253,0.91631539295,1.0,0.0,0.0,0.0,1.0,0.0,0.0,0.0,100000.0,-0.00282429158688,0.000973721966147,0.000443591066869,1.0,0.0,0.0,0.0,1.0,0.0,0.0,0.0,1.0,0.813941307366,-0.113688997738,9.37847107649,0.1,0.0,0.0,0.0,0.1,0.0,0.0,0.0,0.1
1505356813941799676,11480,1505356813941551827,-0.0345791686402,-0.0474464622371,-0.396137825529,0.916312139777,1.0,0.0,0.0,0.0,1.0,0.0,0.0,0.0,100000.0,-0.00168840587139,0.000871241092682,0.000160122581292,1.0,0.0,0.0,0.0,1.0,0.0,0.0,0.0,1.0,0.814049370587,-0.112234716862,9.35775097609,0.1,0.0,0.0,0.0,0.1,0.0,0.0,0.0,0.1
1505356813945669860,11481,1505356813945510774,-0.0345791686402,-0.0474464622371,-0.396137825529,0.916312139777,1.0,0.0,0.0,0.0,1.0,0.0,0.0,0.0,100000.0,-0.000855349004269,-5.58607316634e-05,0.000484647374833,1.0,0.0,0.0,0.0,1.0,0.0,0.0,0.0,1.0,0.814173132181,-0.111131550185,9.34094101191,0.1,0.0,0.0,0.0,0.1,0.0,0.0,0.0,0.1
1505356813953910201,11482,1505356813953703860,-0.0345795824603,-0.0474461606406,-0.396145817461,0.916308684683,1.0,0.0,0.0,0.0,1.0,0.0,0.0,0.0,100000.0,0.000472720712423,0.000328864902258,0.000869281240739,1.0,0.0,0.0,0.0,1.0,0.0,0.0,0.0,1.0,0.814253522456,-0.0990505384281,9.33212188482,0.1,0.0,0.0,0.0,0.1,0.0,0.0,0.0,0.1
1505356813955698490,11483,1505356813955436050,-0.0345719996228,-0.047449316298,-0.396153395286,0.916305531266,1.0,0.0,0.0,0.0,1.0,0.0,0.0,0.0,100000.0,0.000282328604953,-0.000805594027042,0.000130786327645,1.0,0.0,0.0,0.0,1.0,0.0,0.0,0.0,1.0,0.829508909583,-0.0791274590418,9.33222235441,0.1,0.0,0.0,0.0,0.1,0.0,0.0,0.0,0.1
1505356813965393986,11484,1505356813965138305,-0.0345754445653,-0.0474573171337,-0.396153301047,0.916305027681,1.0,0.0,0.0,0.0,1.0,0.0,0.0,0.0,100000.0,-0.000539146363735,0.000209903359064,0.00161028653383,1.0,0.0,0.0,0.0,1.0,0.0,0.0,0.0,1.0,0.848087313771,-0.0452749802731,9.33276325464,0.1,0.0,0.0,0.0,0.1,0.0,0.0,0.0,0.1
1505356813966332887,11485,1505356813965984678,-0.0345713078242,-0.0474684732815,-0.396160784448,0.916301370503,1.0,0.0,0.0,0.0,1.0,0.0,0.0,0.0,100000.0,-0.00140701618511,1.71717256308e-05,0.000500517431647,1.0,0.0,0.0,0.0,1.0,0.0,0.0,0.0,1.0,0.882580728829,-0.0296811950859,9.30759795904,0.1,0.0,0.0,0.0,0.1,0.0,0.0,0.0,0.1
1505356813971876837,11486,1505356813971643782,-0.0345667562186,-0.0474799313967,-0.396160275728,0.916301168511,1.0,0.0,0.0,0.0,1.0,0.0,0.0,0.0,100000.0,-0.00188745558262,0.000548664480448,0.00165783241391,1.0,0.0,0.0,0.0,1.0,0.0,0.0,0.0,1.0,0.898753704131,-0.0245381729677,9.29512746334,0.1,0.0,0.0,0.0,0.1,0.0,0.0,0.0,0.1
1505356813976175382,11487,1505356813975581961,-0.0345706186373,-0.0474876333359,-0.396168203545,0.91629719606,1.0,0.0,0.0,0.0,1.0,0.0,0.0,0.0,100000.0,-0.00173630577046,0.000803293660283,0.00100628100336,1.0,0.0,0.0,0.0,1.0,0.0,0.0,0.0,1.0,0.904110646248,-0.0483066875488,9.27247974873,0.1,0.0,0.0,0.0,0.1,0.0,0.0,0.0,0.1
1505356813983693765,11488,1505356813983522819,-0.0345775087959,-0.047503634851,-0.396168014498,0.916296188386,1.0,0.0,0.0,0.0,1.0,0.0,0.0,0.0,100000.0,-0.0011152215302,0.000413307949202,0.000951400958002,1.0,0.0,0.0,0.0,1.0,0.0,0.0,0.0,1.0,0.897222930193,-0.0790670659393,9.300654459,0.1,0.0,0.0,0.0,0.1,0.0,0.0,0.0,0.1
1505356813985564430,11489,1505356813985396027,-0.0345813682598,-0.0475113339909,-0.396175911718,0.916292229087,1.0,0.0,0.0,0.0,1.0,0.0,0.0,0.0,100000.0,-0.00109178200364,0.000338051468134,0.000541985034943,1.0,0.0,0.0,0.0,1.0,0.0,0.0,0.0,1.0,0.884189629555,-0.0920571412891,9.30922007561,0.1,0.0,0.0,0.0,0.1,0.0,0.0,0.0,0.1
1505356813990717106,11490,1505356813990452353,-0.034585227858,-0.0475190330636,-0.39618380887,0.916288269651,1.0,0.0,0.0,0.0,1.0,0.0,0.0,0.0,100000.0,-0.000839982181787,-0.000140780583024,-0.000511400401592,1.0,0.0,0.0,0.0,1.0,0.0,0.0,0.0,1.0,0.89057149291,-0.0911802958697,9.32994952202,0.1,0.0,0.0,0.0,0.1,0.0,0.0,0.0,0.1
1505356813997031845,11491,1505356813996892689,-0.0345890875905,-0.0475267320689,-0.396191705952,0.916284310077,1.0,0.0,0.0,0.0,1.0,0.0,0.0,0.0,100000.0,-0.000696029514074,-0.000301187857985,-0.000173344276845,1.0,0.0,0.0,0.0,1.0,0.0,0.0,0.0,1.0,0.888579770923,-0.0538938892074,9.31179431677,0.1,0.0,0.0,0.0,0.1,0.0,0.0,0.0,0.1
1505356814000856649,11492,1505356814000712073,-0.0345849536156,-0.0475378920672,-0.396199188118,0.916280651949,1.0,0.0,0.0,0.0,1.0,0.0,0.0,0.0,100000.0,-0.000489585101604,0.000117598101497,-0.00052600732306,1.0,0.0,0.0,0.0,1.0,0.0,0.0,0.0,1.0,0.897060616314,-0.0349982660729,9.29000760317,0.1,0.0,0.0,0.0,0.1,0.0,0.0,0.0,0.1
1505356814008623748,11493,1505356814008393987,-0.0345762662608,-0.0475605070294,-0.396206160117,0.916276791514,1.0,0.0,0.0,0.0,1.0,0.0,0.0,0.0,100000.0,0.000774413347244,0.000588374212384,0.000382261758205,1.0,0.0,0.0,0.0,1.0,0.0,0.0,0.0,1.0,0.893388292193,-0.0187420209404,9.28336083889,0.1,0.0,0.0,0.0,0.1,0.0,0.0,0.0,0.1
1505356814010996917,11494,1505356814010698054,-0.0345682708071,-0.0475639643317,-0.396205745088,0.916277093193,1.0,0.0,0.0,0.0,1.0,0.0,0.0,0.0,100000.0,0.000889655202627,0.000832844525576,-0.000240174180362,1.0,0.0,0.0,0.0,1.0,0.0,0.0,0.0,1.0,0.875803777575,-0.0305439279415,9.27612586021,0.1,0.0,0.0,0.0,0.1,0.0,0.0,0.0,0.1
1505356814016259411,11495,1505356814016083305,-0.0345641347729,-0.0475751211567,-0.396213226483,0.916273434949,1.0,0.0,0.0,0.0,1.0,0.0,0.0,0.0,100000.0,0.00131891295314,0.00088145211339,0.000109624583274,1.0,0.0,0.0,0.0,1.0,0.0,0.0,0.0,1.0,0.85832272619,-0.0427667635493,9.29700834751,0.1,0.0,0.0,0.0,0.1,0.0,0.0,0.0,0.1
1505356814021987948,11496,1505356814021805105,-0.0345565559048,-0.0475782759746,-0.396220833427,0.916270267584,1.0,0.0,0.0,0.0,1.0,0.0,0.0,0.0,100000.0,0.000600524246693,-0.000296860933304,-0.000415298185544,1.0,0.0,0.0,0.0,1.0,0.0,0.0,0.0,1.0,0.822030058503,-0.0426738237031,9.28969684839,0.1,0.0,0.0,0.0,0.1,0.0,0.0,0.0,0.1
1505356814029350786,11497,1505356814029131926,-0.0345489745548,-0.0475814324875,-0.396228409763,0.916267113311,1.0,0.0,0.0,0.0,1.0,0.0,0.0,0.0,100000.0,-0.00104881078005,-0.000261232256889,0.00014208786888,1.0,0.0,0.0,0.0,1.0,0.0,0.0,0.0,1.0,0.808317638934,-0.0424049753696,9.29635763168,0.1,0.0,0.0,0.0,0.1,0.0,0.0,0.0,0.1
1505356814030674664,11498,1505356814030484430,-0.0345413932598,-0.0475845891327,-0.396235986045,0.916263958907,1.0,0.0,0.0,0.0,1.0,0.0,0.0,0.0,100000.0,-0.00102885812521,-0.000740673393011,0.000388104905142,1.0,0.0,0.0,0.0,1.0,0.0,0.0,0.0,1.0,0.802080127597,-0.0481198540889,9.28624641895,0.1,0.0,0.0,0.0,0.1,0.0,0.0,0.0,0.1
1505356814035969424,11499,1505356814035808721,-0.0345498045469,-0.0475808298175,-0.396244392813,0.916260201473,1.0,0.0,0.0,0.0,1.0,0.0,0.0,0.0,100000.0,-0.00187455490232,0.000247413292527,0.00060104962904,1.0,0.0,0.0,0.0,1.0,0.0,0.0,0.0,1.0,0.808269521594,-0.0711186190136,9.28699293137,0.1,0.0,0.0,0.0,0.1,0.0,0.0,0.0,0.1
1505356814041202251,11500,1505356814041017954,-0.0345498045469,-0.0475808298175,-0.396244392813,0.916260201473,1.0,0.0,0.0,0.0,1.0,0.0,0.0,0.0,100000.0,6.48573040962e-05,0.000878984108567,0.000845419359393,1.0,0.0,0.0,0.0,1.0,0.0,0.0,0.0,1.0,0.821848760545,-0.106555401348,9.29130903482,0.1,0.0,0.0,0.0,0.1,0.0,0.0,0.0,0.1
1505356814047327491,11501,1505356814047067524,-0.0345467736808,-0.0475725280832,-0.39625247958,0.91625724959,1.0,0.0,0.0,0.0,1.0,0.0,0.0,0.0,100000.0,1.57617032528e-05,0.000983312726021,0.000579110812396,1.0,0.0,0.0,0.0,1.0,0.0,0.0,0.0,1.0,0.814623054862,-0.122792311013,9.28924648762,0.1,0.0,0.0,0.0,0.1,0.0,0.0,0.0,0.1
1505356814051018742,11502,1505356814050752233,-0.0345547699146,-0.0475690699609,-0.396252894734,0.916256948063,1.0,0.0,0.0,0.0,1.0,0.0,0.0,0.0,100000.0,3.08081507683e-05,0.000973265618086,0.000626823864877,1.0,0.0,0.0,0.0,1.0,0.0,0.0,0.0,1.0,0.817522726953,-0.12857497111,9.29232833385,0.1,0.0,0.0,0.0,0.1,0.0,0.0,0.0,0.1
1505356814056039858,11503,1505356814055835604,-0.0345551848041,-0.0475687685771,-0.396260886185,0.916253491966,1.0,0.0,0.0,0.0,1.0,0.0,0.0,0.0,100000.0,-0.00120628252625,0.000139158219099,0.000294483965263,1.0,0.0,0.0,0.0,1.0,0.0,0.0,0.0,1.0,0.808980256319,-0.11831309963,9.28945735693,0.1,0.0,0.0,0.0,0.1,0.0,0.0,0.0,0.1
1505356814063431748,11504,1505356814063184327,-0.0345635964921,-0.047565008186,-0.396269323176,0.916249721039,1.0,0.0,0.0,0.0,1.0,0.0,0.0,0.0,100000.0,-0.00264813378453,-0.000152224674821,-0.000132352579385,1.0,0.0,0.0,0.0,1.0,0.0,0.0,0.0,1.0,0.812645789981,-0.106219647825,9.28918924332,0.1,0.0,0.0,0.0,0.1,0.0,0.0,0.0,0.1
1505356814066090938,11505,1505356814065855156,-0.0345715926601,-0.0475615499167,-0.396269738264,0.916249419365,1.0,0.0,0.0,0.0,1.0,0.0,0.0,0.0,100000.0,-0.00240525603294,-0.000350322574377,-0.000494900043122,1.0,0.0,0.0,0.0,1.0,0.0,0.0,0.0,1.0,0.815452294052,-0.112439845316,9.29051988125,0.1,0.0,0.0,0.0,0.1,0.0,0.0,0.0,0.1
1505356814074550393,11506,1505356814074211385,-0.0345800026662,-0.0475577904558,-0.396278144655,0.916245661409,1.0,0.0,0.0,0.0,1.0,0.0,0.0,0.0,100000.0,-0.00256911665201,-0.000432683154941,-0.000859688967466,1.0,0.0,0.0,0.0,1.0,0.0,0.0,0.0,1.0,0.81395547241,-0.110409351997,9.28944275379,0.1,0.0,0.0,0.0,0.1,0.0,0.0,0.0,0.1
1505356814078170938,11507,1505356814078005294,-0.0345884135598,-0.047554030436,-0.39628655103,0.916241903271,1.0,0.0,0.0,0.0,1.0,0.0,0.0,0.0,100000.0,-0.00143089529593,-0.000373529270291,-0.000787002500147,1.0,0.0,0.0,0.0,1.0,0.0,0.0,0.0,1.0,0.815810655057,-0.10422389172,9.29072082043,0.1,0.0,0.0,0.0,0.1,0.0,0.0,0.0,0.1
1505356814081053989,11508,1505356814080913927,-0.0345888283181,-0.0475537287588,-0.396294542351,0.916238446879,1.0,0.0,0.0,0.0,1.0,0.0,0.0,0.0,100000.0,-0.00210224464536,-0.000255132094026,-0.000223027542233,1.0,0.0,0.0,0.0,1.0,0.0,0.0,0.0,1.0,0.812864325941,-0.0810681430623,9.28977336884,0.1,0.0,0.0,0.0,0.1,0.0,0.0,0.0,0.1
1505356814086078099,11509,1505356814085937474,-0.0345892430739,-0.047553427078,-0.396302533641,0.916234990418,1.0,0.0,0.0,0.0,1.0,0.0,0.0,0.0,100000.0,-0.0016035066219,-0.000624334439635,-9.17164143175e-05,1.0,0.0,0.0,0.0,1.0,0.0,0.0,0.0,1.0,0.813262407482,-0.0448800247163,9.28947663307,0.1,0.0,0.0,0.0,0.1,0.0,0.0,0.0,0.1
1505356814091056179,11510,1505356814090872267,-0.034581661815,-0.0475565840189,-0.396310109887,0.916231835719,1.0,0.0,0.0,0.0,1.0,0.0,0.0,0.0,100000.0,-0.00219689658843,-5.32530248165e-06,0.00034899963066,1.0,0.0,0.0,0.0,1.0,0.0,0.0,0.0,1.0,0.813743434846,-0.0299326611217,9.28983995914,0.1,0.0,0.0,0.0,0.1,0.0,0.0,0.0,0.1
1505356814097112940,11511,1505356814096950222,-0.0345740815644,-0.0475597406797,-0.396317686127,0.916228680851,1.0,0.0,0.0,0.0,1.0,0.0,0.0,0.0,100000.0,-0.00157678872347,1.31148844957e-05,2.02562659979e-08,1.0,0.0,0.0,0.0,1.0,0.0,0.0,0.0,1.0,0.81285366565,-0.0230052176863,9.28933293819,0.1,0.0,0.0,0.0,0.1,0.0,0.0,0.0,0.1
1505356814101169776,11512,1505356814100998820,-0.0345744979558,-0.0475594379765,-0.396325707832,0.916225210994,1.0,0.0,0.0,0.0,1.0,0.0,0.0,0.0,100000.0,-0.00137822702527,0.00113813765347,0.000115096365334,1.0,0.0,0.0,0.0,1.0,0.0,0.0,0.0,1.0,0.813724596798,-0.0328641497996,9.28987851143,0.1,0.0,0.0,0.0,0.1,0.0,0.0,0.0,0.1
1505356814106321161,11513,1505356814106099740,-0.0345630555185,-0.0475548966058,-0.39632538792,0.916226016817,1.0,0.0,0.0,0.0,1.0,0.0,0.0,0.0,100000.0,-0.00167056545615,0.00142242945731,0.000374127412215,1.0,0.0,0.0,0.0,1.0,0.0,0.0,0.0,1.0,0.812896817923,-0.044915277604,9.28968224525,0.1,0.0,0.0,0.0,0.1,0.0,0.0,0.0,0.1
1505356814113277711,11514,1505356814113044075,-0.0345634702844,-0.0475545951498,-0.396333379101,0.916222560087,1.0,0.0,0.0,0.0,1.0,0.0,0.0,0.0,100000.0,-0.00117579475045,0.00105631165206,0.00082561688032,1.0,0.0,0.0,0.0,1.0,0.0,0.0,0.0,1.0,0.813261166215,-0.0385518735275,9.28961039782,0.1,0.0,0.0,0.0,0.1,0.0,0.0,0.0,0.1
1505356814116196789,11515,1505356814116059758,-0.0345558900974,-0.0475577521723,-0.396340955278,0.916219404857,1.0,0.0,0.0,0.0,1.0,0.0,0.0,0.0,100000.0,-0.00170643255115,0.000584807246923,0.00103749963455,1.0,0.0,0.0,0.0,1.0,0.0,0.0,0.0,1.0,0.813847628236,-0.0414486432448,9.2897634387,0.1,0.0,0.0,0.0,0.1,0.0,0.0,0.0,0.1
1505356814121165851,11516,1505356814121024092,-0.0345478941913,-0.0475612110631,-0.396340540223,0.916219706394,1.0,0.0,0.0,0.0,1.0,0.0,0.0,0.0,100000.0,-0.000846333801746,-0.000504709780216,0.000739336013794,1.0,0.0,0.0,0.0,1.0,0.0,0.0,0.0,1.0,0.813955107331,-0.0326197845396,9.28954848051,0.1,0.0,0.0,0.0,0.1,0.0,0.0,0.0,0.1
1505356814129928294,11517,1505356814129643540,-0.0345483090123,-0.0475609097394,-0.39634853135,0.916216249532,1.0,0.0,0.0,0.0,1.0,0.0,0.0,0.0,100000.0,-0.00092501193285,-2.50227749348e-05,0.000191476661712,1.0,0.0,0.0,0.0,1.0,0.0,0.0,0.0,1.0,0.81473082602,-0.0374254604802,9.28973014355,0.1,0.0,0.0,0.0,0.1,0.0,0.0,0.0,0.1
1505356814131413295,11518,1505356814131266701,-0.0345407279822,-0.0475640674387,-0.396356107367,0.916213094074,1.0,0.0,0.0,0.0,1.0,0.0,0.0,0.0,100000.0,-0.00144543871284,-6.11394643784e-05,0.000595567747951,1.0,0.0,0.0,0.0,1.0,0.0,0.0,0.0,1.0,0.814616045356,-0.0394878844731,9.28967757225,0.1,0.0,0.0,0.0,0.1,0.0,0.0,0.0,0.1
1505356814140734614,11519,1505356814140504138,-0.0345407279822,-0.0475640674387,-0.396356107367,0.916213094074,1.0,0.0,0.0,0.0,1.0,0.0,0.0,0.0,100000.0,-0.00190359354019,0.0004179533571,0.000978418393061,1.0,0.0,0.0,0.0,1.0,0.0,0.0,0.0,1.0,0.814605239034,-0.0531084320508,9.28971554041,0.1,0.0,0.0,0.0,0.1,0.0,0.0,0.0,0.1
1505356814142971373,11520,1505356814142797786,-0.0345411428282,-0.0475637661774,-0.396364098436,0.916209637076,1.0,0.0,0.0,0.0,1.0,0.0,0.0,0.0,100000.0,-0.0028682500124,-0.000211361795664,0.00183451315388,1.0,0.0,0.0,0.0,1.0,0.0,0.0,0.0,1.0,0.81442386806,-0.0732675894164,9.28987851143,0.1,0.0,0.0,0.0,0.1,0.0,0.0,0.0,0.1
1505356814147556015,11521,1505356814147308924,-0.0345491386464,-0.047560307081,-0.396364513513,0.916209335598,1.0,0.0,0.0,0.0,1.0,0.0,0.0,0.0,100000.0,-0.00170378386974,-0.00045894831419,0.00145256950054,1.0,0.0,0.0,0.0,1.0,0.0,0.0,0.0,1.0,0.813969345391,-0.104241096042,9.28995503187,0.1,0.0,0.0,0.0,0.1,0.0,0.0,0.0,0.1
1505356814151960158,11522,1505356814151789271,-0.0345575492449,-0.0475565465766,-0.396372919593,0.916205576976,1.0,0.0,0.0,0.0,1.0,0.0,0.0,0.0,100000.0,-0.0013373605907,-0.000249365344644,0.000735643785447,1.0,0.0,0.0,0.0,1.0,0.0,0.0,0.0,1.0,0.813795933127,-0.121272206493,9.29010339975,0.1,0.0,0.0,0.0,0.1,0.0,0.0,0.0,0.1
1505356814156453323,11523,1505356814156302695,-0.0345575492449,-0.0475565465766,-0.396372919593,0.916205576976,1.0,0.0,0.0,0.0,1.0,0.0,0.0,0.0,100000.0,-0.000350024551153,-2.68425792456e-05,0.00048057641834,1.0,0.0,0.0,0.0,1.0,0.0,0.0,0.0,1.0,0.813418880105,-0.12670465596,9.30509030819,0.1,0.0,0.0,0.0,0.1,0.0,0.0,0.0,0.1
1505356814163624223,11524,1505356814163467608,-0.0345659604078,-0.0475527851871,-0.396381356058,0.916201805047,1.0,0.0,0.0,0.0,1.0,0.0,0.0,0.0,100000.0,-0.000611502677202,0.000710463151336,0.000382307480322,1.0,0.0,0.0,0.0,1.0,0.0,0.0,0.0,1.0,0.813228236139,-0.118877949007,9.32339855433,0.1,0.0,0.0,0.0,0.1,0.0,0.0,0.0,0.1
1505356814167676514,11525,1505356814167467825,-0.0345659604078,-0.0475527851871,-0.396381356058,0.916201805047,1.0,0.0,0.0,0.0,1.0,0.0,0.0,0.0,100000.0,-0.00117854773998,-1.42063945532e-05,0.000983494799584,1.0,0.0,0.0,0.0,1.0,0.0,0.0,0.0,1.0,0.813147845864,-0.106306235306,9.35743496418,0.1,0.0,0.0,0.0,0.1,0.0,0.0,0.0,0.1
1505356814174414046,11526,1505356814174162686,-0.0345709238378,-0.0475410244968,-0.396389857099,0.916198550208,1.0,0.0,0.0,0.0,1.0,0.0,0.0,0.0,100000.0,-0.000847265124321,0.000250309705734,0.000481919880258,1.0,0.0,0.0,0.0,1.0,0.0,0.0,0.0,1.0,0.813143318892,-0.0963014064357,9.37347505093,0.1,0.0,0.0,0.0,0.1,0.0,0.0,0.0,0.1
1505356814179466342,11527,1505356814179323134,-0.0345709238378,-0.0475410244968,-0.396389857099,0.916198550208,1.0,0.0,0.0,0.0,1.0,0.0,0.0,0.0,100000.0,-0.00104727223516,3.74857336283e-05,0.000540151959285,1.0,0.0,0.0,0.0,1.0,0.0,0.0,0.0,1.0,0.813357035816,-0.0763086427003,9.3788536787,0.1,0.0,0.0,0.0,0.1,0.0,0.0,0.0,0.1
1505356814181336629,11528,1505356814181232582,-0.0345633427888,-0.0475441823595,-0.396397433135,0.916195394587,1.0,0.0,0.0,0.0,1.0,0.0,0.0,0.0,100000.0,-0.000123858451843,0.000812524929643,2.92097683996e-05,1.0,0.0,0.0,0.0,1.0,0.0,0.0,0.0,1.0,0.813569146395,-0.0659692696296,9.37211637497,0.1,0.0,0.0,0.0,0.1,0.0,0.0,0.0,0.1
1505356814188150571,11529,1505356814187968898,-0.0345603086336,-0.0475358772511,-0.396405519236,0.916192441445,1.0,0.0,0.0,0.0,1.0,0.0,0.0,0.0,100000.0,-0.000676069408655,0.00119332037866,0.00112568691839,1.0,0.0,0.0,0.0,1.0,0.0,0.0,0.0,1.0,0.813830396533,-0.0647482008673,9.35930650234,0.1,0.0,0.0,0.0,0.1,0.0,0.0,0.0,0.1
1505356814191433005,11530,1505356814191244846,-0.0345603086336,-0.0475358772511,-0.396405519236,0.916192441445,1.0,0.0,0.0,0.0,1.0,0.0,0.0,0.0,100000.0,-0.00110271573067,0.00102781504393,0.000773682957515,1.0,0.0,0.0,0.0,1.0,0.0,0.0,0.0,1.0,0.814067843556,-0.0765580642968,9.36551283598,0.1,0.0,0.0,0.0,0.1,0.0,0.0,0.0,0.1
1505356814196879169,11531,1505356814196728666,-0.0345572759774,-0.0475275760106,-0.396413605239,0.916189487921,1.0,0.0,0.0,0.0,1.0,0.0,0.0,0.0,100000.0,-0.00163543608505,0.000663477927446,0.000789235346019,1.0,0.0,0.0,0.0,1.0,0.0,0.0,0.0,1.0,0.814225484431,-0.0820036200806,9.36345963478,0.1,0.0,0.0,0.0,0.1,0.0,0.0,0.0,0.1
1505356814203818620,11532,1505356814203687329,-0.034557690505,-0.047527274605,-0.396421596102,0.916186030421,1.0,0.0,0.0,0.0,1.0,0.0,0.0,0.0,100000.0,-0.00211930274963,9.04724074644e-05,-0.000415320275351,1.0,0.0,0.0,0.0,1.0,0.0,0.0,0.0,1.0,0.814344061911,-0.0645445236005,9.37155152559,0.1,0.0,0.0,0.0,0.1,0.0,0.0,0.0,0.1
1505356814206956698,11533,1505356814206780974,-0.0345501103985,-0.0475304324477,-0.396429172199,0.916182874372,1.0,0.0,0.0,0.0,1.0,0.0,0.0,0.0,100000.0,-0.00161011517048,0.000264739617705,-0.00101129792165,1.0,0.0,0.0,0.0,1.0,0.0,0.0,0.0,1.0,0.814366185665,-0.0381459359545,9.36776171923,0.1,0.0,0.0,0.0,0.1,0.0,0.0,0.0,0.1
1505356814214292586,11534,1505356814214126600,-0.0345425309763,-0.0475335896851,-0.39643677869,0.916179705029,1.0,0.0,0.0,0.0,1.0,0.0,0.0,0.0,100000.0,-0.00140020996332,0.00048387053539,-0.000609513721429,1.0,0.0,0.0,0.0,1.0,0.0,0.0,0.0,1.0,0.814329604805,-0.0210540285334,9.35042487383,0.1,0.0,0.0,0.0,0.1,0.0,0.0,0.0,0.1
1505356814216535661,11535,1505356814216407219,-0.0345394980094,-0.0475252887181,-0.396444864709,0.9161767511,1.0,0.0,0.0,0.0,1.0,0.0,0.0,0.0,100000.0,-0.0016637891531,0.000819060951471,-0.000490119447932,1.0,0.0,0.0,0.0,1.0,0.0,0.0,0.0,1.0,0.798956297338,-0.0251916839276,9.33320777416,0.1,0.0,0.0,0.0,0.1,0.0,0.0,0.0,0.1
1505356814221566742,11536,1505356814221437433,-0.0345284693896,-0.0475204476722,-0.396452535978,0.916174098396,1.0,0.0,0.0,0.0,1.0,0.0,0.0,0.0,100000.0,-0.00151344761252,0.000847039744258,0.000261578941718,1.0,0.0,0.0,0.0,1.0,0.0,0.0,0.0,1.0,0.780062538385,-0.0403512311168,9.29756326675,0.1,0.0,0.0,0.0,0.1,0.0,0.0,0.0,0.1
1505356814230039339,11537,1505356814229759156,-0.0345254361589,-0.0475121468815,-0.396460621967,0.916171144157,1.0,0.0,0.0,0.0,1.0,0.0,0.0,0.0,100000.0,-0.00253320112824,0.00043660402298,-0.000288066948997,1.0,0.0,0.0,0.0,1.0,0.0,0.0,0.0,1.0,0.760418397188,-0.043977477774,9.28394963741,0.1,0.0,0.0,0.0,0.1,0.0,0.0,0.0,0.1
1505356814231528628,11538,1505356814231345097,-0.0345144082773,-0.047507305737,-0.396468293369,0.916168490986,1.0,0.0,0.0,0.0,1.0,0.0,0.0,0.0,100000.0,-0.00172124058008,-7.33695924282e-05,-0.000516774947755,1.0,0.0,0.0,0.0,1.0,0.0,0.0,0.0,1.0,0.762526214123,-0.0420450810343,9.27773863077,0.1,0.0,0.0,0.0,0.1,0.0,0.0,0.0,0.1
1505356814236984099,11539,1505356814236857366,-0.0345148226281,-0.0475070047053,-0.396476284049,0.91616503301,1.0,0.0,0.0,0.0,1.0,0.0,0.0,0.0,100000.0,-0.00142996397335,-0.000438954681158,-0.00112624804024,1.0,0.0,0.0,0.0,1.0,0.0,0.0,0.0,1.0,0.791600331664,-0.0476555336267,9.28400220871,0.1,0.0,0.0,0.0,0.1,0.0,0.0,0.0,0.1
1505356814243012450,11540,1505356814242895486,-0.0345152369764,-0.04750670367,-0.396484274699,0.916161574963,1.0,0.0,0.0,0.0,1.0,0.0,0.0,0.0,100000.0,-0.00108534097672,-0.000242825597525,-0.000942550832406,1.0,0.0,0.0,0.0,1.0,0.0,0.0,0.0,1.0,0.814815670252,-0.0679810754955,9.29760181904,0.1,0.0,0.0,0.0,0.1,0.0,0.0,0.0,0.1
1505356814246943906,11541,1505356814246710618,-0.0345156529034,-0.047506401482,-0.396492295817,0.916158103648,1.0,0.0,0.0,0.0,1.0,0.0,0.0,0.0,100000.0,-0.0006777831004,0.000608382746577,-0.000608150847256,1.0,0.0,0.0,0.0,1.0,0.0,0.0,0.0,1.0,0.83341152519,-0.0889782613143,9.29085458517,0.1,0.0,0.0,0.0,0.1,0.0,0.0,0.0,0.1
1505356814251777034,11542,1505356814251556254,-0.0345160672464,-0.0475061004395,-0.396500286406,0.916154645463,1.0,0.0,0.0,0.0,1.0,0.0,0.0,0.0,100000.0,-0.00223867967725,0.00133457966149,0.000179045367986,1.0,0.0,0.0,0.0,1.0,0.0,0.0,0.0,1.0,0.820275710523,-0.0886472629383,9.2937255621,0.1,0.0,0.0,0.0,0.1,0.0,0.0,0.0,0.1
1505356814256815284,11543,1505356814256591535,-0.0345164815867,-0.0475057993933,-0.396508276965,0.916151187207,1.0,0.0,0.0,0.0,1.0,0.0,0.0,0.0,100000.0,-0.00170534104109,0.00128936581314,0.0009271716699,1.0,0.0,0.0,0.0,1.0,0.0,0.0,0.0,1.0,0.809226903319,-0.0609949342906,9.28511263132,0.1,0.0,0.0,0.0,0.1,0.0,0.0,0.0,0.1
1505356814263890378,11544,1505356814263752799,-0.0345130318177,-0.0474977961164,-0.396508372307,0.916151690873,1.0,0.0,0.0,0.0,1.0,0.0,0.0,0.0,100000.0,-0.0020657889545,0.00107431598008,0.000938283454161,1.0,0.0,0.0,0.0,1.0,0.0,0.0,0.0,1.0,0.807139384747,-0.0358469274361,9.28846668005,0.1,0.0,0.0,0.0,0.1,0.0,0.0,0.0,0.1
1505356814270172290,11545,1505356814269927597,-0.0345054508006,-0.0475009555183,-0.396515948311,0.916148533713,1.0,0.0,0.0,0.0,1.0,0.0,0.0,0.0,100000.0,-0.000793240964413,0.000288804993033,0.00129307666793,1.0,0.0,0.0,0.0,1.0,0.0,0.0,0.0,1.0,0.80888672322,-0.0180730066961,9.29091182947,0.1,0.0,0.0,0.0,0.1,0.0,0.0,0.0,0.1
1505356814278279738,11546,1505356814278041099,-0.0344978707917,-0.0475041146399,-0.39652352431,0.916145376385,1.0,0.0,0.0,0.0,1.0,0.0,0.0,0.0,100000.0,-0.000173639506102,0.00107594579458,0.000192027539015,1.0,0.0,0.0,0.0,1.0,0.0,0.0,0.0,1.0,0.819889968634,-0.0310022382997,9.28944275379,0.1,0.0,0.0,0.0,0.1,0.0,0.0,0.0,0.1
1505356814279498449,11547,1505356814279332947,-0.0344864272516,-0.0474995757209,-0.396523205207,0.91614618068,1.0,0.0,0.0,0.0,1.0,0.0,0.0,0.0,100000.0,-0.000864583998919,0.00134762749076,0.000609347596765,1.0,0.0,0.0,0.0,1.0,0.0,0.0,0.0,1.0,0.815197688341,-0.0420413298532,9.29129968882,0.1,0.0,0.0,0.0,0.1,0.0,0.0,0.0,0.1
1505356814282130672,11548,1505356814281873944,-0.034486841535,-0.0474992749332,-0.396531195693,0.916142722224,1.0,0.0,0.0,0.0,1.0,0.0,0.0,0.0,100000.0,-0.000953707844019,0.00186650652904,0.000264083966613,1.0,0.0,0.0,0.0,1.0,0.0,0.0,0.0,1.0,0.81464291513,-0.0445427606814,9.28860570192,0.1,0.0,0.0,0.0,0.1,0.0,0.0,0.0,0.1
1505356814286855702,11549,1505356814286658937,-0.0344758121825,-0.047494435417,-0.396538867138,0.916140067799,1.0,0.0,0.0,0.0,1.0,0.0,0.0,0.0,100000.0,-0.00146023929119,0.00193947926164,0.00113841472194,1.0,0.0,0.0,0.0,1.0,0.0,0.0,0.0,1.0,0.813309648633,-0.0422700195573,9.28930431604,0.1,0.0,0.0,0.0,0.1,0.0,0.0,0.0,0.1
