%time,field.header.seq,field.header.stamp,field.header.frame_id,field.orientation.x,field.orientation.y,field.orientation.z,field.orientation.w,field.orientation_covariance0,field.orientation_covariance1,field.orientation_covariance2,field.orientation_covariance3,field.orientation_covariance4,field.orientation_covariance5,field.orientation_covariance6,field.orientation_covariance7,field.orientation_covariance8,field.angular_velocity.x,field.angular_velocity.y,field.angular_velocity.z,field.angular_velocity_covariance0,field.angular_velocity_covariance1,field.angular_velocity_covariance2,field.angular_velocity_covariance3,field.angular_velocity_covariance4,field.angular_velocity_covariance5,field.angular_velocity_covariance6,field.angular_velocity_covariance7,field.angular_velocity_covariance8,field.linear_acceleration.x,field.linear_acceleration.y,field.linear_acceleration.z,field.linear_acceleration_covariance0,field.linear_acceleration_covariance1,field.linear_acceleration_covariance2,field.linear_acceleration_covariance3,field.linear_acceleration_covariance4,field.linear_acceleration_covariance5,field.linear_acceleration_covariance6,field.linear_acceleration_covariance7,field.linear_acceleration_covariance8
1505403906767567440,8724,1505403906767324492,-0.00904137316063,0.0107538712831,-0.998834470884,0.0461769162808,1.0,0.0,0.0,0.0,1.0,0.0,0.0,0.0,100000.0,-0.000817757099867,-0.0426881983876,0.232094675303,1.0,0.0,0.0,0.0,1.0,0.0,0.0,0.0,1.0,-0.388281484693,-4.07613651752,8.77236257792,0.1,0.0,0.0,0.0,0.1,0.0,0.0,0.0,0.1
1505403906775639134,8725,1505403906775402252,-0.00883991702986,0.0119295391947,-0.998799758684,0.0466753041052,1.0,0.0,0.0,0.0,1.0,0.0,0.0,0.0,100000.0,-0.25795969367,0.0837471112609,0.130961820483,1.0,0.0,0.0,0.0,1.0,0.0,0.0,0.0,1.0,-0.415171410888,-4.23747110963,8.83601123095,0.1,0.0,0.0,0.0,0.1,0.0,0.0,0.0,0.1
1505403906777925518,8726,1505403906777686349,-0.00882618357315,0.0130908249876,-0.998779248401,0.0468053602424,1.0,0.0,0.0,0.0,1.0,0.0,0.0,0.0,100000.0,-0.222389861941,0.0194164700806,-0.0156883001328,1.0,0.0,0.0,0.0,1.0,0.0,0.0,0.0,1.0,-0.216219646484,-4.87427540421,8.9702555418,0.1,0.0,0.0,0.0,0.1,0.0,0.0,0.0,0.1
1505403906783137594,8727,1505403906782993494,-0.00861706144598,0.0147598651566,-0.998755421416,0.0468561716749,1.0,0.0,0.0,0.0,1.0,0.0,0.0,0.0,100000.0,-0.398738026619,0.116312198341,-0.0471988916397,1.0,0.0,0.0,0.0,1.0,0.0,0.0,0.0,1.0,-0.132249558717,-5.2980365634,9.24049361944,0.1,0.0,0.0,0.0,0.1,0.0,0.0,0.0,0.1
1505403906786277290,8728,1505403906786141319,-0.00844067327067,0.0162313495817,-0.998761315868,0.0462723702863,1.0,0.0,0.0,0.0,1.0,0.0,0.0,0.0,100000.0,-0.332587063313,0.103719107807,-0.302675664425,1.0,0.0,0.0,0.0,1.0,0.0,0.0,0.0,1.0,-0.0979596657678,-5.23937166929,9.34529508352,0.1,0.0,0.0,0.0,0.1,0.0,0.0,0.0,0.1
1505403906791426252,8729,1505403906791303380,-0.00841205297205,0.0171682148675,-0.998751848635,0.0461436302253,1.0,0.0,0.0,0.0,1.0,0.0,0.0,0.0,100000.0,-0.110680766404,0.0433432608843,-0.118778526783,1.0,0.0,0.0,0.0,1.0,0.0,0.0,0.0,1.0,0.0492336445488,-5.42066612244,9.48346471786,0.1,0.0,0.0,0.0,0.1,0.0,0.0,0.0,0.1
1505403906799558576,8730,1505403906799352391,-0.00824952328817,0.0180003635341,-0.998760734798,0.0456609998157,1.0,0.0,0.0,0.0,1.0,0.0,0.0,0.0,100000.0,-0.104686640203,0.0848907008767,-0.264053761959,1.0,0.0,0.0,0.0,1.0,0.0,0.0,0.0,1.0,-0.1143791968,-4.79785630703,9.42646166086,0.1,0.0,0.0,0.0,0.1,0.0,0.0,0.0,0.1
1505403906801452188,8731,1505403906801265118,-0.00834361415027,0.0180590773725,-0.998770524341,0.0454058755492,1.0,0.0,0.0,0.0,1.0,0.0,0.0,0.0,100000.0,0.210232079029,-0.0303263664246,-0.173786461353,1.0,0.0,0.0,0.0,1.0,0.0,0.0,0.0,1.0,-0.113832482696,-5.07016861439,9.53684794903,0.1,0.0,0.0,0.0,0.1,0.0,0.0,0.0,0.1
1505403906808141804,8732,1505403906807996060,-0.00832053653278,0.0184253965024,-0.998754595334,0.0456128461486,1.0,0.0,0.0,0.0,1.0,0.0,0.0,0.0,100000.0,0.0958240628242,-0.00152203626931,0.00810742378235,1.0,0.0,0.0,0.0,1.0,0.0,0.0,0.0,1.0,-0.38573217839,-5.14798932076,9.41742699146,0.1,0.0,0.0,0.0,0.1,0.0,0.0,0.0,0.1
1505403906819180843,8733,1505403906818936726,-0.00843242406437,0.018680624779,-0.998739128608,0.0458266458391,1.0,0.0,0.0,0.0,1.0,0.0,0.0,0.0,100000.0,0.155381411314,-0.0574916303158,0.0133692026138,1.0,0.0,0.0,0.0,1.0,0.0,0.0,0.0,1.0,-0.481982190907,-5.47873345613,9.40523570776,0.1,0.0,0.0,0.0,0.1,0.0,0.0,0.0,0.1
1505403906821443052,8734,1505403906820994378,-0.00864357653189,0.0188817742589,-0.998689344498,0.0467799141896,1.0,0.0,0.0,0.0,1.0,0.0,0.0,0.0,100000.0,0.20051689446,-0.107971154153,0.303996920586,1.0,0.0,0.0,0.0,1.0,0.0,0.0,0.0,1.0,-0.508461622894,-5.86337018013,9.27606627941,0.1,0.0,0.0,0.0,0.1,0.0,0.0,0.0,0.1
1505403906821964988,8735,1505403906821842544,-0.00876569752723,0.0197270676572,-0.998642767697,0.0473986062645,1.0,0.0,0.0,0.0,1.0,0.0,0.0,0.0,100000.0,-0.0743661448359,-0.0641530379653,0.176133289933,1.0,0.0,0.0,0.0,1.0,0.0,0.0,0.0,1.0,-0.610295145214,-5.61690309048,9.12022743225,0.1,0.0,0.0,0.0,0.1,0.0,0.0,0.0,0.1
1505403906826192014,8736,1505403906825985174,-0.00899510607721,0.0204541338408,-0.998600388765,0.0479372510121,1.0,0.0,0.0,0.0,1.0,0.0,0.0,0.0,100000.0,-0.0224480554461,-0.0964049175382,0.142852365971,1.0,0.0,0.0,0.0,1.0,0.0,0.0,0.0,1.0,-0.405474708229,-5.8192307353,9.16172546148,0.1,0.0,0.0,0.0,0.1,0.0,0.0,0.0,0.1
1505403906831379614,8737,1505403906831228810,-0.00905708709776,0.0219063176318,-0.998548639095,0.0483600846085,1.0,0.0,0.0,0.0,1.0,0.0,0.0,0.0,100000.0,-0.341952592134,-0.0218365006149,0.0981794670224,1.0,0.0,0.0,0.0,1.0,0.0,0.0,0.0,1.0,-0.546903799474,-5.20064473152,9.05529545546,0.1,0.0,0.0,0.0,0.1,0.0,0.0,0.0,0.1
1505403906843170384,8738,1505403906842975478,-0.00901850240925,0.0230103283609,-0.998534223662,0.0481517972624,1.0,0.0,0.0,0.0,1.0,0.0,0.0,0.0,100000.0,-0.234220594168,0.0238867476583,-0.153275251389,1.0,0.0,0.0,0.0,1.0,0.0,0.0,0.0,1.0,-0.392300195247,-4.78587793708,9.37819420099,0.1,0.0,0.0,0.0,0.1,0.0,0.0,0.0,0.1
1505403906846390880,8739,1505403906846215548,-0.00885937294231,0.0236993975207,-0.998520018281,0.0481416987672,1.0,0.0,0.0,0.0,1.0,0.0,0.0,0.0,100000.0,-0.121072404087,0.0660902634263,-0.0715194642544,1.0,0.0,0.0,0.0,1.0,0.0,0.0,0.0,1.0,-0.384618068486,-3.83327085376,9.47371741533,0.1,0.0,0.0,0.0,0.1,0.0,0.0,0.0,0.1
1505403906847204102,8740,1505403906847052836,-0.00853787407649,0.0241640583287,-0.998534890509,0.0476578999426,1.0,0.0,0.0,0.0,1.0,0.0,0.0,0.0,100000.0,-0.104260466993,0.135834753513,-0.259914964437,1.0,0.0,0.0,0.0,1.0,0.0,0.0,0.0,1.0,-0.258311968669,-2.63352493644,9.83513514996,0.1,0.0,0.0,0.0,0.1,0.0,0.0,0.0,0.1
1505403906851751036,8741,1505403906851405370,-0.00817579754597,0.0237566387018,-0.998568250905,0.0472252764616,1.0,0.0,0.0,0.0,1.0,0.0,0.0,0.0,100000.0,0.200347959995,0.146253213286,-0.241936564445,1.0,0.0,0.0,0.0,1.0,0.0,0.0,0.0,1.0,-0.0586952229962,-1.83735776544,9.89337012768,0.1,0.0,0.0,0.0,0.1,0.0,0.0,0.0,0.1
1505403906856247873,8742,1505403906856125502,-0.00776567029249,0.0236637335862,-0.998581042436,0.0470704128382,1.0,0.0,0.0,0.0,1.0,0.0,0.0,0.0,100000.0,0.0235050991178,0.160432115197,-0.130018353462,1.0,0.0,0.0,0.0,1.0,0.0,0.0,0.0,1.0,-0.238251784071,-0.92520750761,9.84424049854,0.1,0.0,0.0,0.0,0.1,0.0,0.0,0.0,0.1
1505403906865761179,8743,1505403906865535566,-0.00740831339033,0.0232543847662,-0.998605136013,0.0468202179742,1.0,0.0,0.0,0.0,1.0,0.0,0.0,0.0,100000.0,0.130405202508,0.14214040339,-0.167568281293,1.0,0.0,0.0,0.0,1.0,0.0,0.0,0.0,1.0,-0.119179841504,-0.60247585848,9.71378891468,0.1,0.0,0.0,0.0,0.1,0.0,0.0,0.0,0.1
1505403906866630429,8744,1505403906866468884,-0.00712638731141,0.0228906034082,-0.998603285071,0.0470819915072,1.0,0.0,0.0,0.0,1.0,0.0,0.0,0.0,100000.0,0.0855064541101,0.0948643237352,0.0393664240837,1.0,0.0,0.0,0.0,1.0,0.0,0.0,0.0,1.0,-0.339028605074,-0.101015418023,9.49919054508,0.1,0.0,0.0,0.0,0.1,0.0,0.0,0.0,0.1
1505403906874961123,8745,1505403906874743611,-0.00699050822914,0.0225470167181,-0.998606463475,0.0472005925662,1.0,0.0,0.0,0.0,1.0,0.0,0.0,0.0,100000.0,0.056220036,0.0402339100838,-0.0225705504417,1.0,0.0,0.0,0.0,1.0,0.0,0.0,0.0,1.0,-0.292618919909,0.230796991661,9.51476683617,0.1,0.0,0.0,0.0,0.1,0.0,0.0,0.0,0.1
1505403906876540313,8746,1505403906876379040,-0.0068622398338,0.0219315188401,-0.998608763008,0.0474600525647,1.0,0.0,0.0,0.0,1.0,0.0,0.0,0.0,100000.0,0.158733800054,0.038528740406,0.0347618758678,1.0,0.0,0.0,0.0,1.0,0.0,0.0,0.0,1.0,-0.204372814298,0.318189379573,9.50370408297,0.1,0.0,0.0,0.0,0.1,0.0,0.0,0.0,0.1
1505403906883132665,8747,1505403906882957892,-0.00687475852266,0.0214834281457,-0.998601674218,0.0478110474533,1.0,0.0,0.0,0.0,1.0,0.0,0.0,0.0,100000.0,0.0712132826447,-0.0226331651211,0.0680632218719,1.0,0.0,0.0,0.0,1.0,0.0,0.0,0.0,1.0,-0.30843514055,0.651973085105,9.44812220335,0.1,0.0,0.0,0.0,0.1,0.0,0.0,0.0,0.1
1505403906891849755,8748,1505403906891709481,-0.00673946145997,0.0209207910422,-0.998602525453,0.0480613807638,1.0,0.0,0.0,0.0,1.0,0.0,0.0,0.0,100000.0,0.142083764076,0.0443558730185,0.0315076038241,1.0,0.0,0.0,0.0,1.0,0.0,0.0,0.0,1.0,-0.132888327353,0.344811338186,9.38215340376,0.1,0.0,0.0,0.0,0.1,0.0,0.0,0.0,0.1
1505403906894222613,8749,1505403906893310211,-0.00664100178635,0.0206696395317,-0.998585893724,0.048527064122,1.0,0.0,0.0,0.0,1.0,0.0,0.0,0.0,100000.0,0.00737313181162,0.0216781459749,0.116904959083,1.0,0.0,0.0,0.0,1.0,0.0,0.0,0.0,1.0,-0.374212931097,0.487458659708,9.14514797926,0.1,0.0,0.0,0.0,0.1,0.0,0.0,0.0,0.1
1505403906897279206,8750,1505403906897087618,-0.00653536486441,0.0205069498866,-0.998573209039,0.0488702383987,1.0,0.0,0.0,0.0,1.0,0.0,0.0,0.0,100000.0,-0.0233550257981,0.0369766615331,0.0657453238964,1.0,0.0,0.0,0.0,1.0,0.0,0.0,0.0,1.0,-0.200119905919,0.410814236104,9.29421797991,0.1,0.0,0.0,0.0,0.1,0.0,0.0,0.0,0.1
1505403906907251686,8751,1505403906907039233,-0.00639567106156,0.0202418952665,-0.998569042919,0.0490838832255,1.0,0.0,0.0,0.0,1.0,0.0,0.0,0.0,100000.0,0.0154136158526,0.0498511493206,0.0169208645821,1.0,0.0,0.0,0.0,1.0,0.0,0.0,0.0,1.0,-0.203385350108,0.472397968918,9.41886686087,0.1,0.0,0.0,0.0,0.1,0.0,0.0,0.0,0.1
1505403906907344474,8752,1505403906907075125,-0.00637723223507,0.0199976059015,-0.998568422138,0.0491989123396,1.0,0.0,0.0,0.0,1.0,0.0,0.0,0.0,100000.0,0.00363614037633,-0.00292960461229,-0.023141503334,1.0,0.0,0.0,0.0,1.0,0.0,0.0,0.0,1.0,-0.290492721274,0.492947212607,9.58972240686,0.1,0.0,0.0,0.0,0.1,0.0,0.0,0.0,0.1
1505403906911751931,8753,1505403906911541127,-0.00621403356007,0.0195960783965,-0.998586149584,0.0490212337332,1.0,0.0,0.0,0.0,1.0,0.0,0.0,0.0,100000.0,0.0604740418494,0.064268887043,-0.138156577945,1.0,0.0,0.0,0.0,1.0,0.0,0.0,0.0,1.0,-0.0830487575382,0.579651957005,9.6825948596,0.1,0.0,0.0,0.0,0.1,0.0,0.0,0.0,0.1
1505403906919383237,8754,1505403906919200368,-0.00612892253348,0.0192084903207,-0.998606398917,0.0487722282723,1.0,0.0,0.0,0.0,1.0,0.0,0.0,0.0,100000.0,0.0532399900258,0.0206664539874,-0.169788181782,1.0,0.0,0.0,0.0,1.0,0.0,0.0,0.0,1.0,-0.365338750184,0.70851753056,9.3063929081,0.1,0.0,0.0,0.0,0.1,0.0,0.0,0.0,0.1
1505403906923772894,8755,1505403906923591027,-0.00607828853745,0.0187662321188,-0.998622184042,0.0486273223546,1.0,0.0,0.0,0.0,1.0,0.0,0.0,0.0,100000.0,0.0728916525841,0.0174199603498,-0.128386676311,1.0,0.0,0.0,0.0,1.0,0.0,0.0,0.0,1.0,-0.0991373723373,0.668549837172,9.38987203836,0.1,0.0,0.0,0.0,0.1,0.0,0.0,0.0,0.1
1505403906931568025,8756,1505403906931368545,-0.00597066573445,0.0182838178955,-0.998645956527,0.0483353562639,1.0,0.0,0.0,0.0,1.0,0.0,0.0,0.0,100000.0,0.100006267428,0.0295197889209,-0.188935577869,1.0,0.0,0.0,0.0,1.0,0.0,0.0,0.0,1.0,-0.298210899532,0.589804533124,9.17072508335,0.1,0.0,0.0,0.0,0.1,0.0,0.0,0.0,0.1
1505403906934256275,8757,1505403906934102999,-0.00609137491027,0.0176481368457,-0.998648579339,0.0485020968842,1.0,0.0,0.0,0.0,1.0,0.0,0.0,0.0,100000.0,0.171895012259,-0.058533526957,-0.0060042142868,1.0,0.0,0.0,0.0,1.0,0.0,0.0,0.0,1.0,-0.179170992598,0.285926776379,9.46746259928,0.1,0.0,0.0,0.0,0.1,0.0,0.0,0.0,0.1
1505403906940628394,8758,1505403906940414222,-0.00605008980796,0.0171078191691,-0.998651279255,0.0486450550281,1.0,0.0,0.0,0.0,1.0,0.0,0.0,0.0,100000.0,0.16198939085,0.00190818402916,-0.011933863163,1.0,0.0,0.0,0.0,1.0,0.0,0.0,0.0,1.0,-0.271665516123,-0.0887067889795,9.46358575821,0.1,0.0,0.0,0.0,0.1,0.0,0.0,0.0,0.1
1505403906942139364,8759,1505403906941913913,-0.0060988440799,0.0167101659546,-0.998637616188,0.0490559475417,1.0,0.0,0.0,0.0,1.0,0.0,0.0,0.0,100000.0,0.126032814384,-0.0440167076886,0.0916284024715,1.0,0.0,0.0,0.0,1.0,0.0,0.0,0.0,1.0,-0.422568593919,-0.495637402683,9.42475075722,0.1,0.0,0.0,0.0,0.1,0.0,0.0,0.0,0.1
1505403906947098719,8760,1505403906946886276,-0.0061182119692,0.0166792179178,-0.99860265488,0.0497705619678,1.0,0.0,0.0,0.0,1.0,0.0,0.0,0.0,100000.0,-0.00318317115307,-0.0239516850561,0.214438319206,1.0,0.0,0.0,0.0,1.0,0.0,0.0,0.0,1.0,-0.369623456895,-0.77014080137,9.48208442926,0.1,0.0,0.0,0.0,0.1,0.0,0.0,0.0,0.1
1505403906951697932,8761,1505403906951571365,-0.00599805102548,0.0168922011628,-0.998573550272,0.0502945486115,1.0,0.0,0.0,0.0,1.0,0.0,0.0,0.0,100000.0,-0.0760631710291,0.0314367488027,0.139137417078,1.0,0.0,0.0,0.0,1.0,0.0,0.0,0.0,1.0,-0.54511852935,-1.0804489404,9.21789146662,0.1,0.0,0.0,0.0,0.1,0.0,0.0,0.0,0.1
1505403906957463456,8762,1505403906957269563,-0.00604702505468,0.017234984041,-0.998526372705,0.051102561831,1.0,0.0,0.0,0.0,1.0,0.0,0.0,0.0,100000.0,-0.122072346509,-0.0333814658225,0.255513906479,1.0,0.0,0.0,0.0,1.0,0.0,0.0,0.0,1.0,-0.416457290202,-1.27869573832,9.31897146702,0.1,0.0,0.0,0.0,0.1,0.0,0.0,0.0,0.1
1505403906962567844,8763,1505403906962375399,-0.00586699809147,0.0176702938742,-0.998498725937,0.0515134288236,1.0,0.0,0.0,0.0,1.0,0.0,0.0,0.0,100000.0,-0.154498010874,0.0661704316735,0.0947362184525,1.0,0.0,0.0,0.0,1.0,0.0,0.0,0.0,1.0,-0.422646428645,-1.31741216183,9.0700674057,0.1,0.0,0.0,0.0,0.1,0.0,0.0,0.0,0.1
1505403906967902953,8764,1505403906967695266,-0.00593717119349,0.0178236189778,-0.998492548017,0.0515722809162,1.0,0.0,0.0,0.0,1.0,0.0,0.0,0.0,100000.0,-0.0545810759068,-0.0300706084818,-0.0468603372574,1.0,0.0,0.0,0.0,1.0,0.0,0.0,0.0,1.0,-0.295666631311,-1.20046190917,9.18432819843,0.1,0.0,0.0,0.0,0.1,0.0,0.0,0.0,0.1
1505403906980949344,8765,1505403906980607199,-0.00585001099791,0.0180029585522,-0.998490706311,0.0515556036278,1.0,0.0,0.0,0.0,1.0,0.0,0.0,0.0,100000.0,-0.0672321394086,0.0440847575665,-0.0756849646568,1.0,0.0,0.0,0.0,1.0,0.0,0.0,0.0,1.0,-0.160301785171,-1.08634451926,9.27662762403,0.1,0.0,0.0,0.0,0.1,0.0,0.0,0.0,0.1
1505403906983082279,8766,1505403906982898388,-0.00579298261999,0.0179386945411,-0.998520328344,0.0510078275802,1.0,0.0,0.0,0.0,1.0,0.0,0.0,0.0,100000.0,0.00668597593904,0.0360845886171,-0.291196942329,1.0,0.0,0.0,0.0,1.0,0.0,0.0,0.0,1.0,0.00192978243576,-0.768659313023,9.41616119146,0.1,0.0,0.0,0.0,0.1,0.0,0.0,0.0,0.1
1505403906990109454,8767,1505403906989903665,-0.00575374213175,0.0178887521659,-0.998526288758,0.0509130401388,1.0,0.0,0.0,0.0,1.0,0.0,0.0,0.0,100000.0,-0.000880718231201,0.0357529483736,-0.107258677483,1.0,0.0,0.0,0.0,1.0,0.0,0.0,0.0,1.0,0.107247069851,-0.686595080793,9.53779072762,0.1,0.0,0.0,0.0,0.1,0.0,0.0,0.0,0.1
1505403907008748443,8768,1505403907008534612,-0.00559974248096,0.0178184932243,-0.998533589335,0.0508115651546,1.0,0.0,0.0,0.0,1.0,0.0,0.0,0.0,100000.0,-0.00814149901271,0.0788910984993,-0.109611272812,1.0,0.0,0.0,0.0,1.0,0.0,0.0,0.0,1.0,0.144494855776,-0.419650047272,9.38398113251,0.1,0.0,0.0,0.0,0.1,0.0,0.0,0.0,0.1
1505403907014169322,8769,1505403907013995504,-0.00566452505929,0.0175708949113,-0.998541157078,0.0507418410168,1.0,0.0,0.0,0.0,1.0,0.0,0.0,0.0,100000.0,0.0618381798267,-0.0194202568382,-0.097248852253,1.0,0.0,0.0,0.0,1.0,0.0,0.0,0.0,1.0,-0.0486407571472,-0.420971412212,9.40177359581,0.1,0.0,0.0,0.0,0.1,0.0,0.0,0.0,0.1
1505403907015707574,8770,1505403907015533256,-0.00560581237987,0.0174847149001,-0.998523366552,0.051126764633,1.0,0.0,0.0,0.0,1.0,0.0,0.0,0.0,100000.0,-0.00611549289897,0.0227437801659,0.0811748504639,1.0,0.0,0.0,0.0,1.0,0.0,0.0,0.0,1.0,-0.106142634526,-0.357917143404,9.52450420856,0.1,0.0,0.0,0.0,0.1,0.0,0.0,0.0,0.1
1505403907016469028,8771,1505403907016331437,-0.00562178175731,0.0174311457499,-0.998520637734,0.0511965501571,1.0,0.0,0.0,0.0,1.0,0.0,0.0,0.0,100000.0,-0.0103541538119,-0.0175759904087,-0.0408723652363,1.0,0.0,0.0,0.0,1.0,0.0,0.0,0.0,1.0,-0.407640390098,-0.473148716241,9.72006826401,0.1,0.0,0.0,0.0,0.1,0.0,0.0,0.0,0.1
1505403907018111345,8772,1505403907017972293,-0.00553416348469,0.0175905719471,-0.998492238915,0.0517029364789,1.0,0.0,0.0,0.0,1.0,0.0,0.0,0.0,100000.0,-0.0964990034699,0.025141581893,0.132762417197,1.0,0.0,0.0,0.0,1.0,0.0,0.0,0.0,1.0,-0.342345415801,-0.460268894583,9.92137544155,0.1,0.0,0.0,0.0,0.1,0.0,0.0,0.0,0.1
1505403907021643534,8773,1505403907021437483,-0.00540355632712,0.0177965094455,-0.998468390804,0.0521052626576,1.0,0.0,0.0,0.0,1.0,0.0,0.0,0.0,100000.0,-0.124468892813,0.0339191183448,0.0908288136125,1.0,0.0,0.0,0.0,1.0,0.0,0.0,0.0,1.0,-0.540214686096,-0.273541179672,9.67736518383,0.1,0.0,0.0,0.0,0.1,0.0,0.0,0.0,0.1
1505403907024437153,8774,1505403907024172276,-0.00536233083291,0.017789234974,-0.998460499083,0.0522629916642,1.0,0.0,0.0,0.0,1.0,0.0,0.0,0.0,100000.0,-0.0612600371242,-0.00206707790494,-0.00726670026779,1.0,0.0,0.0,0.0,1.0,0.0,0.0,0.0,1.0,-0.521381128579,0.0257691125385,9.44887747765,0.1,0.0,0.0,0.0,0.1,0.0,0.0,0.0,0.1
1505403907024466888,8775,1505403907024193615,-0.00532434868969,0.0176238413163,-0.998447089261,0.0525781463513,1.0,0.0,0.0,0.0,1.0,0.0,0.0,0.0,100000.0,-0.0223783124238,-0.00351182580926,0.0540179163218,1.0,0.0,0.0,0.0,1.0,0.0,0.0,0.0,1.0,-0.435527710617,0.519109318405,9.27697050571,0.1,0.0,0.0,0.0,0.1,0.0,0.0,0.0,0.1
1505403907027633329,8776,1505403907027422686,-0.00539821249964,0.0172536748548,-0.998461387077,0.0524216417309,1.0,0.0,0.0,0.0,1.0,0.0,0.0,0.0,100000.0,0.0536196306348,-0.0467407479882,-0.134108155966,1.0,0.0,0.0,0.0,1.0,0.0,0.0,0.0,1.0,-0.416032229364,0.583432855457,9.25412769318,0.1,0.0,0.0,0.0,0.1,0.0,0.0,0.0,0.1
1505403907038121261,8777,1505403907037869361,-0.00545487904316,0.0169529453911,-0.998458423225,0.052570134373,1.0,0.0,0.0,0.0,1.0,0.0,0.0,0.0,100000.0,0.0163298249245,-0.0258666239679,-0.0103854062036,1.0,0.0,0.0,0.0,1.0,0.0,0.0,0.0,1.0,-0.135150618106,0.763657519221,9.54002325535,0.1,0.0,0.0,0.0,0.1,0.0,0.0,0.0,0.1
1505403907048082763,8778,1505403907047118521,-0.00540167919275,0.0167722682034,-0.998461671627,0.0525718857587,1.0,0.0,0.0,0.0,1.0,0.0,0.0,0.0,100000.0,-0.0247656591237,0.018498538062,-0.0711651071906,1.0,0.0,0.0,0.0,1.0,0.0,0.0,0.0,1.0,-0.201532029361,0.682858137786,9.36008923054,0.1,0.0,0.0,0.0,0.1,0.0,0.0,0.0,0.1
1505403907048089711,8779,1505403907047721293,-0.00544641560325,0.0166656148442,-0.998469650821,0.0524495017042,1.0,0.0,0.0,0.0,1.0,0.0,0.0,0.0,100000.0,-0.0605569854379,-0.0111662540585,-0.120099067688,1.0,0.0,0.0,0.0,1.0,0.0,0.0,0.0,1.0,-0.087856557779,0.735503983498,9.35177069902,0.1,0.0,0.0,0.0,0.1,0.0,0.0,0.0,0.1
1505403907048092775,8780,1505403907047760778,-0.00521571736974,0.0167562912981,-0.99846779803,0.0524793225164,1.0,0.0,0.0,0.0,1.0,0.0,0.0,0.0,100000.0,-0.131905242801,0.0937969014049,-0.0552682876587,1.0,0.0,0.0,0.0,1.0,0.0,0.0,0.0,1.0,-0.207162123173,0.778005905449,9.05307694674,0.1,0.0,0.0,0.0,0.1,0.0,0.0,0.0,0.1
1505403907052567979,8781,1505403907052408200,-0.00519214582695,0.0168719839899,-0.998476490766,0.0522788213827,1.0,0.0,0.0,0.0,1.0,0.0,0.0,0.0,100000.0,-0.142866194248,0.0172296203673,-0.15116071701,1.0,0.0,0.0,0.0,1.0,0.0,0.0,0.0,1.0,-0.180255257338,0.689220871031,9.11849199533,0.1,0.0,0.0,0.0,0.1,0.0,0.0,0.0,0.1
1505403907057370108,8782,1505403907057178445,-0.00506381132899,0.0170706883992,-0.998470506422,0.0523411618018,1.0,0.0,0.0,0.0,1.0,0.0,0.0,0.0,100000.0,-0.170335993171,0.0586354844272,-0.0431653857231,1.0,0.0,0.0,0.0,1.0,0.0,0.0,0.0,1.0,-0.158810567483,0.665538085997,9.27021743059,0.1,0.0,0.0,0.0,0.1,0.0,0.0,0.0,0.1
1505403907063006424,8783,1505403907062626398,-0.0050322476204,0.0172552562165,-0.998460180757,0.0524804731195,1.0,0.0,0.0,0.0,1.0,0.0,0.0,0.0,100000.0,-0.161125928164,0.0127529334277,-0.012987434864,1.0,0.0,0.0,0.0,1.0,0.0,0.0,0.0,1.0,-0.266403877735,0.537403107435,9.35076775551,0.1,0.0,0.0,0.0,0.1,0.0,0.0,0.0,0.1
1505403907067583570,8784,1505403907067307679,-0.00520814947417,0.0173673335519,-0.998445590305,0.0527034543871,1.0,0.0,0.0,0.0,1.0,0.0,0.0,0.0,100000.0,-0.13948559761,-0.071737870574,0.0176735818386,1.0,0.0,0.0,0.0,1.0,0.0,0.0,0.0,1.0,-0.273234878853,0.591088806093,9.31154372692,0.1,0.0,0.0,0.0,0.1,0.0,0.0,0.0,0.1
1505403907075265452,8785,1505403907075104863,-0.0052735009669,0.0173273671891,-0.998427068749,0.0530597863155,1.0,0.0,0.0,0.0,1.0,0.0,0.0,0.0,100000.0,-0.0836354345083,-0.0365270674229,0.0705240219831,1.0,0.0,0.0,0.0,1.0,0.0,0.0,0.0,1.0,-0.312805531174,0.732073414326,9.10298112631,0.1,0.0,0.0,0.0,0.1,0.0,0.0,0.0,0.1
1505403907078631514,8786,1505403907078509094,-0.00565300655353,0.0171397601944,-0.998413221703,0.0533414554083,1.0,0.0,0.0,0.0,1.0,0.0,0.0,0.0,100000.0,-0.0259104836732,-0.167056083679,0.0403033904731,1.0,0.0,0.0,0.0,1.0,0.0,0.0,0.0,1.0,-0.379474149644,0.680350267887,8.96437456608,0.1,0.0,0.0,0.0,0.1,0.0,0.0,0.0,0.1
1505403907082910574,8787,1505403907082496873,-0.00581609356016,0.0169720287797,-0.998396581212,0.0536878936072,1.0,0.0,0.0,0.0,1.0,0.0,0.0,0.0,100000.0,-0.0287485681474,-0.0773202031851,0.0660773217678,1.0,0.0,0.0,0.0,1.0,0.0,0.0,0.0,1.0,-0.313353221864,0.682255539298,8.98143862486,0.1,0.0,0.0,0.0,0.1,0.0,0.0,0.0,0.1
1505403907087939805,8788,1505403907087793911,-0.00608258966565,0.0167988792628,-0.9983826213,0.0539716707545,1.0,0.0,0.0,0.0,1.0,0.0,0.0,0.0,100000.0,-0.0277269855142,-0.122399814427,0.0409113913774,1.0,0.0,0.0,0.0,1.0,0.0,0.0,0.0,1.0,-0.382007611543,0.643232814968,9.04671406746,0.1,0.0,0.0,0.0,0.1,0.0,0.0,0.0,0.1
1505403907094269512,8789,1505403907094084013,-0.00636064845013,0.0167040122823,-0.998371389611,0.0541764388939,1.0,0.0,0.0,0.0,1.0,0.0,0.0,0.0,100000.0,-0.0522572360933,-0.122993841767,0.0104783177376,1.0,0.0,0.0,0.0,1.0,0.0,0.0,0.0,1.0,-0.342305695266,0.505225604028,9.07818675041,0.1,0.0,0.0,0.0,0.1,0.0,0.0,0.0,0.1
1505403907099188719,8790,1505403907099022927,-0.00643136332808,0.0166642461365,-0.998362189069,0.0543496081294,1.0,0.0,0.0,0.0,1.0,0.0,0.0,0.0,100000.0,-0.0711424350739,-0.0397332534194,-0.00237433612347,1.0,0.0,0.0,0.0,1.0,0.0,0.0,0.0,1.0,-0.419898154587,0.565312551707,9.10424867868,0.1,0.0,0.0,0.0,0.1,0.0,0.0,0.0,0.1
1505403907107754810,8791,1505403907107610444,-0.0067058870801,0.016570604204,-0.998362175395,0.0543453116262,1.0,0.0,0.0,0.0,1.0,0.0,0.0,0.0,100000.0,-0.0511217787862,-0.121616125107,-0.076913356781,1.0,0.0,0.0,0.0,1.0,0.0,0.0,0.0,1.0,-0.358998943865,0.53239627555,9.06427404881,0.1,0.0,0.0,0.0,0.1,0.0,0.0,0.0,0.1
1505403907107796902,8792,1505403907107643726,-0.00670454614899,0.0165622433515,-0.998365162542,0.0542931245961,1.0,0.0,0.0,0.0,1.0,0.0,0.0,0.0,100000.0,-0.0829323679209,-0.00557248527184,-0.091348387301,1.0,0.0,0.0,0.0,1.0,0.0,0.0,0.0,1.0,-0.272992576286,0.589526416361,9.2485247612,0.1,0.0,0.0,0.0,0.1,0.0,0.0,0.0,0.1
1505403907112756808,8793,1505403907112615758,-0.0067112365094,0.0165625874305,-0.998371742101,0.0541710677115,1.0,0.0,0.0,0.0,1.0,0.0,0.0,0.0,100000.0,-0.0900385975838,-0.0102982381359,-0.119723245502,1.0,0.0,0.0,0.0,1.0,0.0,0.0,0.0,1.0,-0.342379806191,0.634591408074,9.3272298336,0.1,0.0,0.0,0.0,0.1,0.0,0.0,0.0,0.1
1505403907118731728,8794,1505403907118571017,-0.00663802539423,0.0166626935113,-0.998370527119,0.0541717808884,1.0,0.0,0.0,0.0,1.0,0.0,0.0,0.0,100000.0,-0.122337125242,0.0367486923933,-0.0669157207012,1.0,0.0,0.0,0.0,1.0,0.0,0.0,0.0,1.0,-0.0918173760176,0.532920126617,9.57311279774,0.1,0.0,0.0,0.0,0.1,0.0,0.0,0.0,0.1
1505403907126072001,8795,1505403907125919876,-0.00638950427418,0.0168943479356,-0.998364779737,0.0542357983561,1.0,0.0,0.0,0.0,1.0,0.0,0.0,0.0,100000.0,-0.172194615006,0.105370186269,-0.0447229743004,1.0,0.0,0.0,0.0,1.0,0.0,0.0,0.0,1.0,-0.19042827785,0.551263602823,9.59859235287,0.1,0.0,0.0,0.0,0.1,0.0,0.0,0.0,0.1
1505403907129577063,8796,1505403907129223457,-0.00626764563369,0.0171265538803,-0.99834492626,0.0545417819826,1.0,0.0,0.0,0.0,1.0,0.0,0.0,0.0,100000.0,-0.158195823431,0.0619034618139,0.0558260679245,1.0,0.0,0.0,0.0,1.0,0.0,0.0,0.0,1.0,-0.0169724982465,0.285303240642,9.71862196922,0.1,0.0,0.0,0.0,0.1,0.0,0.0,0.0,0.1
1505403907133065747,8797,1505403907132795946,-0.00593011620512,0.0176935778646,-0.998314935715,0.0549459748564,1.0,0.0,0.0,0.0,1.0,0.0,0.0,0.0,100000.0,-0.279740273952,0.152766630054,0.0956178829074,1.0,0.0,0.0,0.0,1.0,0.0,0.0,0.0,1.0,-0.033306159405,0.133500992879,9.73563404083,0.1,0.0,0.0,0.0,0.1,0.0,0.0,0.0,0.1
1505403907140421026,8798,1505403907140196863,-0.00583050876042,0.018107507587,-0.998282096162,0.0554164219236,1.0,0.0,0.0,0.0,1.0,0.0,0.0,0.0,100000.0,-0.207710668445,0.0554049424827,0.118154242635,1.0,0.0,0.0,0.0,1.0,0.0,0.0,0.0,1.0,-0.0345345092006,-0.106251537427,9.69220372438,0.1,0.0,0.0,0.0,0.1,0.0,0.0,0.0,0.1
1505403907144065454,8799,1505403907143921039,-0.00572770327174,0.0187132117939,-0.998236053854,0.0560516717516,1.0,0.0,0.0,0.0,1.0,0.0,0.0,0.0,100000.0,-0.268005400896,0.0617356672883,0.184765249491,1.0,0.0,0.0,0.0,1.0,0.0,0.0,0.0,1.0,0.0201179924887,-0.457722618431,9.74063824415,0.1,0.0,0.0,0.0,0.1,0.0,0.0,0.0,0.1
1505403907147969835,8800,1505403907147686206,-0.00582078390178,0.0191784580723,-0.998210232859,0.0563439103732,1.0,0.0,0.0,0.0,1.0,0.0,0.0,0.0,100000.0,-0.204867258668,-0.0309008043259,0.0476796030998,1.0,0.0,0.0,0.0,1.0,0.0,0.0,0.0,1.0,-0.269028426707,-0.591539568454,9.43727791309,0.1,0.0,0.0,0.0,0.1,0.0,0.0,0.0,0.1
1505403907152930023,8801,1505403907152731390,-0.00611716439936,0.0194230944757,-0.998195763614,0.0564848758784,1.0,0.0,0.0,0.0,1.0,0.0,0.0,0.0,100000.0,-0.108198836446,-0.11302741617,-0.0174061059952,1.0,0.0,0.0,0.0,1.0,0.0,0.0,0.0,1.0,-0.200695342571,-0.907046242058,9.41514189243,0.1,0.0,0.0,0.0,0.1,0.0,0.0,0.0,0.1
1505403907158266795,8802,1505403907158139001,-0.00634079329495,0.0197524410921,-0.998201540458,0.0562433999641,1.0,0.0,0.0,0.0,1.0,0.0,0.0,0.0,100000.0,-0.135120838881,-0.100095912814,-0.16842225194,1.0,0.0,0.0,0.0,1.0,0.0,0.0,0.0,1.0,-0.529707144201,-0.942648765445,9.02237706184,0.1,0.0,0.0,0.0,0.1,0.0,0.0,0.0,0.1
1505403907165438529,8803,1505403907165205604,-0.00670736081112,0.0196388084605,-0.998234019486,0.0556612149962,1.0,0.0,0.0,0.0,1.0,0.0,0.0,0.0,100000.0,0.0464784838259,-0.159796521068,-0.311293780804,1.0,0.0,0.0,0.0,1.0,0.0,0.0,0.0,1.0,-0.466061338782,-1.12333061695,8.94256156683,0.1,0.0,0.0,0.0,0.1,0.0,0.0,0.0,0.1
1505403907168282934,8804,1505403907168097103,-0.00682545712167,0.0196599612143,-0.998247966678,0.0553885916419,1.0,0.0,0.0,0.0,1.0,0.0,0.0,0.0,100000.0,0.0119419693947,-0.0538760200143,-0.179971516132,1.0,0.0,0.0,0.0,1.0,0.0,0.0,0.0,1.0,-0.388933733851,-1.34658046961,8.79100961685,0.1,0.0,0.0,0.0,0.1,0.0,0.0,0.0,0.1
1505403907174682407,8805,1505403907174499384,-0.0069508474019,0.019550571754,-0.998272481312,0.0549682992181,1.0,0.0,0.0,0.0,1.0,0.0,0.0,0.0,100000.0,0.0752395913005,-0.0560796931386,-0.243288457394,1.0,0.0,0.0,0.0,1.0,0.0,0.0,0.0,1.0,-0.314427611232,-1.54978138208,8.73337570429,0.1,0.0,0.0,0.0,0.1,0.0,0.0,0.0,0.1
1505403907178021059,8806,1505403907177889953,-0.00689497149354,0.0194659248644,-0.998271070003,0.0550309724835,1.0,0.0,0.0,0.0,1.0,0.0,0.0,0.0,100000.0,0.0930460244417,0.028625542298,-0.0472536087036,1.0,0.0,0.0,0.0,1.0,0.0,0.0,0.0,1.0,-0.0643676339649,-1.94185168743,8.98706784248,0.1,0.0,0.0,0.0,0.1,0.0,0.0,0.0,0.1
1505403907184511809,8807,1505403907184309145,-0.00661429420122,0.0196811859413,-0.998255979391,0.0552621176098,1.0,0.0,0.0,0.0,1.0,0.0,0.0,0.0,100000.0,-0.00609114766121,0.114081814885,0.0218878984451,1.0,0.0,0.0,0.0,1.0,0.0,0.0,0.0,1.0,-0.217253676429,-2.18336437047,9.06554802656,0.1,0.0,0.0,0.0,0.1,0.0,0.0,0.0,0.1
1505403907188264619,8808,1505403907188123094,-0.00642578254746,0.0199521871158,-0.998234768036,0.0555694829236,1.0,0.0,0.0,0.0,1.0,0.0,0.0,0.0,100000.0,-0.0062195956707,0.0829333588481,0.0524849891663,1.0,0.0,0.0,0.0,1.0,0.0,0.0,0.0,1.0,-0.123620454967,-2.68499194384,9.66317852736,0.1,0.0,0.0,0.0,0.1,0.0,0.0,0.0,0.1
1505403907193573726,8809,1505403907193268589,-0.00593285065918,0.0206217463203,-0.998169488421,0.0565439408499,1.0,0.0,0.0,0.0,1.0,0.0,0.0,0.0,100000.0,-0.137882918119,0.203392878175,0.322870731354,1.0,0.0,0.0,0.0,1.0,0.0,0.0,0.0,1.0,-0.219562742859,-3.02076744437,9.89004178047,0.1,0.0,0.0,0.0,0.1,0.0,0.0,0.0,0.1
1505403907197973660,8810,1505403907197768183,-0.00576505211406,0.0216251593341,-0.998120037253,0.0570570582186,1.0,0.0,0.0,0.0,1.0,0.0,0.0,0.0,100000.0,-0.276953160763,0.0885182917118,0.137897491455,1.0,0.0,0.0,0.0,1.0,0.0,0.0,0.0,1.0,-0.112397395819,-3.10807960629,10.2466807842,0.1,0.0,0.0,0.0,0.1,0.0,0.0,0.0,0.1
1505403907207567451,8811,1505403907207128817,-0.00553452933811,0.0225181101718,-0.99806242592,0.0577381820498,1.0,0.0,0.0,0.0,1.0,0.0,0.0,0.0,100000.0,-0.250695079565,0.115846164525,0.205447018147,1.0,0.0,0.0,0.0,1.0,0.0,0.0,0.0,1.0,-0.058176629059,-2.80118940473,10.1294713259,0.1,0.0,0.0,0.0,0.1,0.0,0.0,0.0,0.1
1505403907208588244,8812,1505403907208455599,-0.00530290833975,0.0235530785373,-0.998026075819,0.0579748535049,1.0,0.0,0.0,0.0,1.0,0.0,0.0,0.0,100000.0,-0.358977198601,0.117246948183,0.0283988118172,1.0,0.0,0.0,0.0,1.0,0.0,0.0,0.0,1.0,-0.192538047954,-1.95717490613,9.94736318588,0.1,0.0,0.0,0.0,0.1,0.0,0.0,0.0,0.1
1505403907213396755,8813,1505403907213218504,-0.00530104066781,0.0240785059094,-0.998028314764,0.0577200783996,1.0,0.0,0.0,0.0,1.0,0.0,0.0,0.0,100000.0,-0.196415930986,0.0113517642021,-0.174133479595,1.0,0.0,0.0,0.0,1.0,0.0,0.0,0.0,1.0,-0.257226042822,-1.37292949557,9.83571927547,0.1,0.0,0.0,0.0,0.1,0.0,0.0,0.0,0.1
1505403907218318943,8814,1505403907218165035,-0.00495466347183,0.024552735075,-0.998013599634,0.0578054448709,1.0,0.0,0.0,0.0,1.0,0.0,0.0,0.0,100000.0,-0.201176673174,0.142892092466,-0.0340014100075,1.0,0.0,0.0,0.0,1.0,0.0,0.0,0.0,1.0,-0.367844320089,-0.749937067926,9.84525921345,0.1,0.0,0.0,0.0,0.1,0.0,0.0,0.0,0.1
1505403907223734194,8815,1505403907223559696,-0.00494102476372,0.024921769288,-0.998024700506,0.0574559733111,1.0,0.0,0.0,0.0,1.0,0.0,0.0,0.0,100000.0,-0.190775036812,0.0139369750395,-0.211084842682,1.0,0.0,0.0,0.0,1.0,0.0,0.0,0.0,1.0,-0.304407157004,-0.441614262015,9.97632997036,0.1,0.0,0.0,0.0,0.1,0.0,0.0,0.0,0.1
1505403907233321409,8816,1505403907233017247,-0.00474463256559,0.0248192796157,-0.998023884851,0.057531009798,1.0,0.0,0.0,0.0,1.0,0.0,0.0,0.0,100000.0,-0.0238349363208,0.0769849643111,-0.0371089577675,1.0,0.0,0.0,0.0,1.0,0.0,0.0,0.0,1.0,-0.166364569962,0.0777811866254,9.85757374763,0.1,0.0,0.0,0.0,0.1,0.0,0.0,0.0,0.1
1505403907241532784,8817,1505403907240875040,-0.00464817866849,0.0248249399125,-0.998025567404,0.0575072482491,1.0,0.0,0.0,0.0,1.0,0.0,0.0,0.0,100000.0,-0.10106293112,0.0448992885649,-0.080676317215,1.0,0.0,0.0,0.0,1.0,0.0,0.0,0.0,1.0,-0.158350386098,0.596801845729,9.6936301589,0.1,0.0,0.0,0.0,0.1,0.0,0.0,0.0,0.1
1505403907241546059,8818,1505403907240925853,-0.00478309226658,0.0244590424515,-0.998037101353,0.0574527770703,1.0,0.0,0.0,0.0,1.0,0.0,0.0,0.0,100000.0,0.0357320010662,-0.0595428273082,-0.0953382849693,1.0,0.0,0.0,0.0,1.0,0.0,0.0,0.0,1.0,-0.21200450547,0.769597418606,9.58059602976,0.1,0.0,0.0,0.0,0.1,0.0,0.0,0.0,0.1
1505403907243759370,8819,1505403907243538230,-0.00471052747345,0.0241389531601,-0.998028474737,0.0577432722017,1.0,0.0,0.0,0.0,1.0,0.0,0.0,0.0,100000.0,0.0126304849982,0.0196130611002,0.0454278886318,1.0,0.0,0.0,0.0,1.0,0.0,0.0,0.0,1.0,-0.25871758908,0.887022419274,9.72628569603,0.1,0.0,0.0,0.0,0.1,0.0,0.0,0.0,0.1
1505403907248835629,8820,1505403907248651942,-0.00497278863152,0.0239750536988,-0.998029479448,0.0577721933689,1.0,0.0,0.0,0.0,1.0,0.0,0.0,0.0,100000.0,-0.0237685665488,-0.117333181202,-0.0633800625801,1.0,0.0,0.0,0.0,1.0,0.0,0.0,0.0,1.0,-0.344651324302,0.335385925323,9.92171773911,0.1,0.0,0.0,0.0,0.1,0.0,0.0,0.0,0.1
1505403907253929043,8821,1505403907253745626,-0.00504599617405,0.0236894674285,-0.998009137227,0.0582332299145,1.0,0.0,0.0,0.0,1.0,0.0,0.0,0.0,100000.0,0.022715035826,-0.0437893979251,0.112176761031,1.0,0.0,0.0,0.0,1.0,0.0,0.0,0.0,1.0,-0.317846278846,0.491197939217,10.0363734007,0.1,0.0,0.0,0.0,0.1,0.0,0.0,0.0,0.1
1505403907258503379,8822,1505403907258322343,-0.00509537041221,0.0235194654224,-0.997996117898,0.0585202580882,1.0,0.0,0.0,0.0,1.0,0.0,0.0,0.0,100000.0,-0.0223042145371,-0.0360291562974,0.0416425094008,1.0,0.0,0.0,0.0,1.0,0.0,0.0,0.0,1.0,-0.412816034257,0.450009350479,9.82051565647,0.1,0.0,0.0,0.0,0.1,0.0,0.0,0.0,0.1
1505403907263517345,8823,1505403907263378679,-0.00525896753637,0.0232027492896,-0.997984403063,0.0588311731003,1.0,0.0,0.0,0.0,1.0,0.0,0.0,0.0,100000.0,0.0267109535635,-0.0847741365433,0.0485351718962,1.0,0.0,0.0,0.0,1.0,0.0,0.0,0.0,1.0,-0.379483897239,0.593016055226,9.70023136139,0.1,0.0,0.0,0.0,0.1,0.0,0.0,0.0,0.1
1505403907273866801,8824,1505403907273722632,-0.00516428483089,0.022944870141,-0.99797057606,0.0591742546643,1.0,0.0,0.0,0.0,1.0,0.0,0.0,0.0,100000.0,0.0124218426645,0.0171321108937,0.0661417841911,1.0,0.0,0.0,0.0,1.0,0.0,0.0,0.0,1.0,-0.455525357276,0.593551150709,9.61116857529,0.1,0.0,0.0,0.0,0.1,0.0,0.0,0.0,0.1
1505403907275083459,8825,1505403907274968634,-0.00527297848021,0.0228244142732,-0.997967206233,0.059268010726,1.0,0.0,0.0,0.0,1.0,0.0,0.0,0.0,100000.0,-0.0367381386459,-0.0547213554382,-0.0368736088276,1.0,0.0,0.0,0.0,1.0,0.0,0.0,0.0,1.0,-0.353824650496,0.363220382482,9.74103136063,0.1,0.0,0.0,0.0,0.1,0.0,0.0,0.0,0.1
1505403907278898716,8826,1505403907278640651,-0.00529407132719,0.0226739291008,-0.997960675193,0.0594336311862,1.0,0.0,0.0,0.0,1.0,0.0,0.0,0.0,100000.0,-0.0258289538324,-0.0193456932902,-0.00500190304592,1.0,0.0,0.0,0.0,1.0,0.0,0.0,0.0,1.0,-0.321970716119,0.475157122314,9.79123811722,0.1,0.0,0.0,0.0,0.1,0.0,0.0,0.0,0.1
1505403907283737601,8827,1505403907283537230,-0.00524549568376,0.0227556570272,-0.997961610831,0.0593909770613,1.0,0.0,0.0,0.0,1.0,0.0,0.0,0.0,100000.0,-0.116819180548,0.0204409249127,-0.0893613994122,1.0,0.0,0.0,0.0,1.0,0.0,0.0,0.0,1.0,-0.275789077207,0.405427284539,9.70357255936,0.1,0.0,0.0,0.0,0.1,0.0,0.0,0.0,0.1
1505403907290439302,8828,1505403907290297755,-0.00531024385815,0.0228394311788,-0.997963094609,0.0593281003567,1.0,0.0,0.0,0.0,1.0,0.0,0.0,0.0,100000.0,-0.138784945011,-0.020309722051,-0.0968099161983,1.0,0.0,0.0,0.0,1.0,0.0,0.0,0.0,1.0,-0.202273905277,0.772050526738,9.79553494453,0.1,0.0,0.0,0.0,0.1,0.0,0.0,0.0,0.1
1505403907295650527,8829,1505403907295382268,-0.00506695178249,0.0228803197347,-0.997965682811,0.0592900742144,1.0,0.0,0.0,0.0,1.0,0.0,0.0,0.0,100000.0,-0.108676880598,0.100361406803,-0.0827431678772,1.0,0.0,0.0,0.0,1.0,0.0,0.0,0.0,1.0,-0.146927537769,0.720067444444,9.75812112093,0.1,0.0,0.0,0.0,0.1,0.0,0.0,0.0,0.1
1505403907299379416,8830,1505403907299124266,-0.00491468200201,0.0229857160243,-0.997966934279,0.0592410402177,1.0,0.0,0.0,0.0,1.0,0.0,0.0,0.0,100000.0,-0.144799798727,0.0777179151773,-0.0903160870075,1.0,0.0,0.0,0.0,1.0,0.0,0.0,0.0,1.0,-0.0270770882256,0.78292657882,10.0512709379,0.1,0.0,0.0,0.0,0.1,0.0,0.0,0.0,0.1
1505403907303890323,8831,1505403907303718412,-0.00466659079993,0.0228776936277,-0.997962470429,0.0593779561697,1.0,0.0,0.0,0.0,1.0,0.0,0.0,0.0,100000.0,-0.0551138408482,0.11083111167,-0.0138915777206,1.0,0.0,0.0,0.0,1.0,0.0,0.0,0.0,1.0,0.0415919182822,0.757247033715,10.1118681192,0.1,0.0,0.0,0.0,0.1,0.0,0.0,0.0,0.1
1505403907308999405,8832,1505403907308807906,-0.00442279652694,0.0227260206541,-0.997963567315,0.0594363959962,1.0,0.0,0.0,0.0,1.0,0.0,0.0,0.0,100000.0,-0.0255318768322,0.112686209381,-0.0444538295269,1.0,0.0,0.0,0.0,1.0,0.0,0.0,0.0,1.0,0.075712871179,0.611973958462,10.1395953894,0.1,0.0,0.0,0.0,0.1,0.0,0.0,0.0,0.1
1505403907314135907,8833,1505403907313962544,-0.00445599733699,0.022496367142,-0.997960310703,0.059575798895,1.0,0.0,0.0,0.0,1.0,0.0,0.0,0.0,100000.0,0.00249227508903,-0.00746838096529,-0.0165757834911,1.0,0.0,0.0,0.0,1.0,0.0,0.0,0.0,1.0,-0.0212587439921,0.518388872594,10.1280916214,0.1,0.0,0.0,0.0,0.1,0.0,0.0,0.0,0.1
1505403907320571022,8834,1505403907320354950,-0.00431980975168,0.0221892762507,-0.997955560942,0.0597802111801,1.0,0.0,0.0,0.0,1.0,0.0,0.0,0.0,100000.0,0.0625258907676,0.0528922043741,0.0103072971106,1.0,0.0,0.0,0.0,1.0,0.0,0.0,0.0,1.0,-0.0942662583664,0.0952719947323,10.0650387764,0.1,0.0,0.0,0.0,0.1,0.0,0.0,0.0,0.1
1505403907324599209,8835,1505403907324413733,-0.00442009275259,0.0220604596876,-0.997949727039,0.0599177870235,1.0,0.0,0.0,0.0,1.0,0.0,0.0,0.0,100000.0,0.00602625310421,-0.0428633652627,-0.0177346616983,1.0,0.0,0.0,0.0,1.0,0.0,0.0,0.0,1.0,-0.216409834102,-0.2171932742,10.1283918619,0.1,0.0,0.0,0.0,0.1,0.0,0.0,0.0,0.1
1505403907329092229,8836,1505403907328840199,-0.00437739909443,0.0221057750101,-0.997929982467,0.0602322437066,1.0,0.0,0.0,0.0,1.0,0.0,0.0,0.0,100000.0,-0.0268195569515,0.0161111969501,0.0546980500221,1.0,0.0,0.0,0.0,1.0,0.0,0.0,0.0,1.0,-0.209754161909,-0.813470210135,10.1264759302,0.1,0.0,0.0,0.0,0.1,0.0,0.0,0.0,0.1
1505403907333972415,8837,1505403907333838349,-0.00432354201092,0.0223359974472,-0.997919267914,0.0603286410289,1.0,0.0,0.0,0.0,1.0,0.0,0.0,0.0,100000.0,-0.084768101573,0.0254239439964,-0.0353484936059,1.0,0.0,0.0,0.0,1.0,0.0,0.0,0.0,1.0,-0.234098286554,-1.07426896542,10.0401036263,0.1,0.0,0.0,0.0,0.1,0.0,0.0,0.0,0.1
1505403907344519570,8838,1505403907344271370,-0.00450070807538,0.0224999060144,-0.997911919186,0.0603763149087,1.0,0.0,0.0,0.0,1.0,0.0,0.0,0.0,100000.0,-0.0450866371393,-0.0633267387748,-0.053382948041,1.0,0.0,0.0,0.0,1.0,0.0,0.0,0.0,1.0,-0.197976548597,-1.42015677392,9.94692742825,0.1,0.0,0.0,0.0,0.1,0.0,0.0,0.0,0.1
1505403907344523632,8839,1505403907344307748,-0.00454357551811,0.0226636502544,-0.997913375425,0.0602877270029,1.0,0.0,0.0,0.0,1.0,0.0,0.0,0.0,100000.0,-0.0221491418779,-0.0139736039564,-0.110380806029,1.0,0.0,0.0,0.0,1.0,0.0,0.0,0.0,1.0,-0.253755680099,-1.79699513018,9.81528189182,0.1,0.0,0.0,0.0,0.1,0.0,0.0,0.0,0.1
1505403907348910536,8840,1505403907348731257,-0.0048979726283,0.0226778861872,-0.997924488255,0.0600702845342,1.0,0.0,0.0,0.0,1.0,0.0,0.0,0.0,100000.0,0.0443961322308,-0.137603253126,-0.161607801914,1.0,0.0,0.0,0.0,1.0,0.0,0.0,0.0,1.0,-0.239955130592,-1.99553691149,9.76013752222,0.1,0.0,0.0,0.0,0.1,0.0,0.0,0.0,0.1
1505403907354637889,8841,1505403907354528741,-0.0051439565779,0.0225935121022,-0.997931783883,0.0599602171185,1.0,0.0,0.0,0.0,1.0,0.0,0.0,0.0,100000.0,0.122996255755,-0.10261220485,-0.120312988758,1.0,0.0,0.0,0.0,1.0,0.0,0.0,0.0,1.0,-0.295397568494,-2.67016041279,9.70515145063,0.1,0.0,0.0,0.0,0.1,0.0,0.0,0.0,0.1
1505403907358982120,8842,1505403907358831885,-0.00546826414075,0.0225398338981,-0.997943731849,0.0597525065445,1.0,0.0,0.0,0.0,1.0,0.0,0.0,0.0,100000.0,0.119361594319,-0.132429346442,-0.160113215446,1.0,0.0,0.0,0.0,1.0,0.0,0.0,0.0,1.0,-0.263090279698,-2.80606597662,9.55915511847,0.1,0.0,0.0,0.0,0.1,0.0,0.0,0.0,0.1
1505403907364068572,8843,1505403907363930402,-0.00589644409163,0.0222696721009,-0.997951536463,0.0596826986853,1.0,0.0,0.0,0.0,1.0,0.0,0.0,0.0,100000.0,0.231345802546,-0.189774274826,-0.104829490185,1.0,0.0,0.0,0.0,1.0,0.0,0.0,0.0,1.0,-0.424399936944,-3.3732720077,9.49024699926,0.1,0.0,0.0,0.0,0.1,0.0,0.0,0.0,0.1
1505403907374748105,8844,1505403907374534807,-0.00621722373116,0.0221179114784,-0.997936127299,0.0599635718709,1.0,0.0,0.0,0.0,1.0,0.0,0.0,0.0,100000.0,0.206341326237,-0.148820027709,0.0344550609589,1.0,0.0,0.0,0.0,1.0,0.0,0.0,0.0,1.0,-0.495339170098,-3.62955211401,9.28319202662,0.1,0.0,0.0,0.0,0.1,0.0,0.0,0.0,0.1
1505403907374755250,8845,1505403907374567201,-0.00667229501332,0.0220966907767,-0.997905905812,0.0604236698822,1.0,0.0,0.0,0.0,1.0,0.0,0.0,0.0,100000.0,0.182819142938,-0.206908464432,0.103715568781,1.0,0.0,0.0,0.0,1.0,0.0,0.0,0.0,1.0,-0.544073528796,-4.24391985536,9.31656136513,0.1,0.0,0.0,0.0,0.1,0.0,0.0,0.0,0.1
1505403907379201504,8846,1505403907379054950,-0.00699887207836,0.0223686585011,-0.997840216254,0.0613641730446,1.0,0.0,0.0,0.0,1.0,0.0,0.0,0.0,100000.0,0.109652593732,-0.151691302657,0.29674449563,1.0,0.0,0.0,0.0,1.0,0.0,0.0,0.0,1.0,-0.574467222393,-4.916180861,9.34704045057,0.1,0.0,0.0,0.0,0.1,0.0,0.0,0.0,0.1
1505403907385921110,8847,1505403907385667671,-0.00717940666967,0.0233925150176,-0.997760489518,0.0622515214031,1.0,0.0,0.0,0.0,1.0,0.0,0.0,0.0,100000.0,-0.17099095881,-0.0651272982359,0.28219845891,1.0,0.0,0.0,0.0,1.0,0.0,0.0,0.0,1.0,-0.365163841099,-5.26239380836,9.48209143877,0.1,0.0,0.0,0.0,0.1,0.0,0.0,0.0,0.1
1505403907389340189,8848,1505403907389210493,-0.00740526262013,0.0243532607843,-0.997692834986,0.0629371733709,1.0,0.0,0.0,0.0,1.0,0.0,0.0,0.0,100000.0,-0.128557816148,-0.0839042887092,0.201717019081,1.0,0.0,0.0,0.0,1.0,0.0,0.0,0.0,1.0,-0.400902794302,-5.61461740732,9.63400729895,0.1,0.0,0.0,0.0,0.1,0.0,0.0,0.0,0.1
1505403907398525811,8849,1505403907398246073,-0.00740204505485,0.0258091710782,-0.997612016443,0.0636345901639,1.0,0.0,0.0,0.0,1.0,0.0,0.0,0.0,100000.0,-0.341343432665,0.0268680024892,0.2067964077,1.0,0.0,0.0,0.0,1.0,0.0,0.0,0.0,1.0,-0.268982426822,-5.34545996189,9.76941285133,0.1,0.0,0.0,0.0,0.1,0.0,0.0,0.0,0.1
1505403907399732470,8850,1505403907399491731,-0.00750224129879,0.0268431136478,-0.997586205303,0.0635997375314,1.0,0.0,0.0,0.0,1.0,0.0,0.0,0.0,100000.0,-0.201587766409,-0.0180743858218,-0.0876808166504,1.0,0.0,0.0,0.0,1.0,0.0,0.0,0.0,1.0,-0.29606237635,-4.93632851839,9.91955997944,0.1,0.0,0.0,0.0,0.1,0.0,0.0,0.0,0.1
1505403907407674863,8851,1505403907407539707,-0.00760883546319,0.0275707379199,-0.997568233364,0.0635576888808,1.0,0.0,0.0,0.0,1.0,0.0,0.0,0.0,100000.0,-0.112721771002,-0.0269493442029,-0.0873927474022,1.0,0.0,0.0,0.0,1.0,0.0,0.0,0.0,1.0,-0.24191948995,-4.43445751071,10.0203590155,0.1,0.0,0.0,0.0,0.1,0.0,0.0,0.0,0.1
1505403907409630523,8852,1505403907409452609,-0.00752622381515,0.028357758747,-0.997588899401,0.0628934119355,1.0,0.0,0.0,0.0,1.0,0.0,0.0,0.0,100000.0,-0.175581723452,0.0638990476727,-0.337439000607,1.0,0.0,0.0,0.0,1.0,0.0,0.0,0.0,1.0,-0.155552589148,-3.69855135679,10.055320096,0.1,0.0,0.0,0.0,0.1,0.0,0.0,0.0,0.1
1505403907414397152,8853,1505403907414244984,-0.00763325612297,0.0283469791375,-0.997639332711,0.0620801417752,1.0,0.0,0.0,0.0,1.0,0.0,0.0,0.0,100000.0,0.0951395481825,-0.0322490818799,-0.402089089155,1.0,0.0,0.0,0.0,1.0,0.0,0.0,0.0,1.0,-0.163087315485,-3.04811094403,10.1142069578,0.1,0.0,0.0,0.0,0.1,0.0,0.0,0.0,0.1
1505403907419937021,8854,1505403907419659225,-0.0073314910891,0.0287173884794,-0.997652209526,0.0617383970136,1.0,0.0,0.0,0.0,1.0,0.0,0.0,0.0,100000.0,-0.0801436081529,0.138103306293,-0.204977631569,1.0,0.0,0.0,0.0,1.0,0.0,0.0,0.0,1.0,-0.128664387949,-2.40044220686,10.0576016903,0.1,0.0,0.0,0.0,0.1,0.0,0.0,0.0,0.1
1505403907426200581,8855,1505403907425830724,-0.00715422187741,0.0285996694438,-0.997683381763,0.0613086108967,1.0,0.0,0.0,0.0,1.0,0.0,0.0,0.0,100000.0,0.067139133811,0.0742332711816,-0.244362831116,1.0,0.0,0.0,0.0,1.0,0.0,0.0,0.0,1.0,-0.169605353102,-1.69649823308,10.0381818533,0.1,0.0,0.0,0.0,0.1,0.0,0.0,0.0,0.1
1505403907431110917,8856,1505403907430891960,-0.00695419641251,0.0284352391539,-0.997665440153,0.0616988318471,1.0,0.0,0.0,0.0,1.0,0.0,0.0,0.0,100000.0,0.0673142001033,0.0750138908625,0.0863428115845,1.0,0.0,0.0,0.0,1.0,0.0,0.0,0.0,1.0,-0.133179906383,-1.28680398464,10.122812295,0.1,0.0,0.0,0.0,0.1,0.0,0.0,0.0,0.1
1505403907434618131,8857,1505403907434416671,-0.00670350976252,0.0283621699825,-0.997653101069,0.0619591817161,1.0,0.0,0.0,0.0,1.0,0.0,0.0,0.0,100000.0,0.00326580926776,0.0960556566715,0.0341231226921,1.0,0.0,0.0,0.0,1.0,0.0,0.0,0.0,1.0,-0.202218960971,-0.785598003864,10.0987626791,0.1,0.0,0.0,0.0,0.1,0.0,0.0,0.0,0.1
1505403907440553966,8858,1505403907440314664,-0.00686947891155,0.0279041085581,-0.997641162114,0.0623400564638,1.0,0.0,0.0,0.0,1.0,0.0,0.0,0.0,100000.0,0.136954724789,-0.0753277242184,0.0756873786449,1.0,0.0,0.0,0.0,1.0,0.0,0.0,0.0,1.0,-0.125870068371,-0.66131734103,10.3326220036,0.1,0.0,0.0,0.0,0.1,0.0,0.0,0.0,0.1
1505403907444617061,8859,1505403907444376873,-0.0067476163157,0.0276377542963,-0.997610801515,0.0629548482073,1.0,0.0,0.0,0.0,1.0,0.0,0.0,0.0,100000.0,0.0475012883544,0.0367664322257,0.173188999295,1.0,0.0,0.0,0.0,1.0,0.0,0.0,0.0,1.0,-0.177627203614,-0.282728342339,10.2193215132,0.1,0.0,0.0,0.0,0.1,0.0,0.0,0.0,0.1
1505403907450904884,8860,1505403907450747615,-0.00686837039438,0.0272090669719,-0.997603664047,0.0632409807153,1.0,0.0,0.0,0.0,1.0,0.0,0.0,0.0,100000.0,0.100292719901,-0.0598301813006,0.0396302975714,1.0,0.0,0.0,0.0,1.0,0.0,0.0,0.0,1.0,-0.152822304331,-0.177781850845,10.1549403667,0.1,0.0,0.0,0.0,0.1,0.0,0.0,0.0,0.1
1505403907455081332,8861,1505403907454947254,-0.00690186227682,0.0267930322018,-0.997576881593,0.0638346538657,1.0,0.0,0.0,0.0,1.0,0.0,0.0,0.0,100000.0,0.0754215866327,-0.0271665155888,0.16704967618,1.0,0.0,0.0,0.0,1.0,0.0,0.0,0.0,1.0,-0.190357014537,0.255274716765,9.94371123314,0.1,0.0,0.0,0.0,0.1,0.0,0.0,0.0,0.1
1505403907459852597,8862,1505403907459503227,-0.00685200769179,0.0264540207581,-0.997569879225,0.0640903334262,1.0,0.0,0.0,0.0,1.0,0.0,0.0,0.0,100000.0,0.0300135202706,0.00546523556113,0.0278907436877,1.0,0.0,0.0,0.0,1.0,0.0,0.0,0.0,1.0,-0.239669146389,0.521823968738,9.76113520861,0.1,0.0,0.0,0.0,0.1,0.0,0.0,0.0,0.1
1505403907464664707,8863,1505403907464423732,-0.00715131497988,0.0258566143355,-0.997570309486,0.0642944151656,1.0,0.0,0.0,0.0,1.0,0.0,0.0,0.0,100000.0,0.124624326825,-0.140145421028,0.00517159700394,1.0,0.0,0.0,0.0,1.0,0.0,0.0,0.0,1.0,-0.293790365383,0.583480644226,9.81877613068,0.1,0.0,0.0,0.0,0.1,0.0,0.0,0.0,0.1
1505403907475142741,8864,1505403907474918171,-0.00716710904797,0.0254608615558,-0.997564513256,0.0645400570967,1.0,0.0,0.0,0.0,1.0,0.0,0.0,0.0,100000.0,0.052503965795,-0.0304386094213,0.0219330489635,1.0,0.0,0.0,0.0,1.0,0.0,0.0,0.0,1.0,-0.397364636511,0.55831323117,9.72220908403,0.1,0.0,0.0,0.0,0.1,0.0,0.0,0.0,0.1
1505403907475150984,8865,1505403907474955885,-0.00748361871992,0.0250729749678,-0.997570719248,0.0645600610055,1.0,0.0,0.0,0.0,1.0,0.0,0.0,0.0,100000.0,0.0530736260116,-0.1486877352,-0.0682029128075,1.0,0.0,0.0,0.0,1.0,0.0,0.0,0.0,1.0,-0.37284611389,0.377430148423,9.69193152189,0.1,0.0,0.0,0.0,0.1,0.0,0.0,0.0,0.1
1505403907479691034,8866,1505403907479467935,-0.00767265588103,0.0246570639468,-0.997563996514,0.0648014846168,1.0,0.0,0.0,0.0,1.0,0.0,0.0,0.0,100000.0,0.061824016273,-0.10264736414,0.020595215261,1.0,0.0,0.0,0.0,1.0,0.0,0.0,0.0,1.0,-0.472192758322,0.495606663078,9.39009400606,0.1,0.0,0.0,0.0,0.1,0.0,0.0,0.0,0.1
1505403907489123378,8867,1505403907488943037,-0.00781812237331,0.0243327370235,-0.997569814655,0.0648171255225,1.0,0.0,0.0,0.0,1.0,0.0,0.0,0.0,100000.0,0.0261091478169,-0.0797720104456,-0.0682101100683,1.0,0.0,0.0,0.0,1.0,0.0,0.0,0.0,1.0,-0.414352393895,0.503873791546,9.23403552771,0.1,0.0,0.0,0.0,0.1,0.0,0.0,0.0,0.1
1505403907492081926,8868,1505403907491878507,-0.00813760547634,0.0238481864533,-0.997575893532,0.064864320107,1.0,0.0,0.0,0.0,1.0,0.0,0.0,0.0,100000.0,0.0755099505186,-0.153637200594,-0.0581696033478,1.0,0.0,0.0,0.0,1.0,0.0,0.0,0.0,1.0,-0.44287571758,0.690953606367,9.24077692032,0.1,0.0,0.0,0.0,0.1,0.0,0.0,0.0,0.1
1505403907495098908,8869,1505403907494953922,-0.00819762840104,0.0233978703365,-0.997580869164,0.0649441916644,1.0,0.0,0.0,0.0,1.0,0.0,0.0,0.0,100000.0,0.0702491849661,-0.0438248738647,-0.0422563254833,1.0,0.0,0.0,0.0,1.0,0.0,0.0,0.0,1.0,-0.30090742372,0.686721251905,9.41274580956,0.1,0.0,0.0,0.0,0.1,0.0,0.0,0.0,0.1
1505403907499981574,8870,1505403907499722651,-0.00843258977956,0.0229625473626,-0.997586372088,0.0649849449713,1.0,0.0,0.0,0.0,1.0,0.0,0.0,0.0,100000.0,0.0612850673497,-0.108466282487,-0.0597398281097,1.0,0.0,0.0,0.0,1.0,0.0,0.0,0.0,1.0,-0.235426807031,0.643255011737,9.54680787325,0.1,0.0,0.0,0.0,0.1,0.0,0.0,0.0,0.1
1505403907507798057,8871,1505403907507652610,-0.00853804191243,0.0224818093077,-0.997580457288,0.065229604694,1.0,0.0,0.0,0.0,1.0,0.0,0.0,0.0,100000.0,0.0825268104672,-0.0556617155671,0.0208697021008,1.0,0.0,0.0,0.0,1.0,0.0,0.0,0.0,1.0,-0.161211688444,0.7305105865,9.6091819644,0.1,0.0,0.0,0.0,0.1,0.0,0.0,0.0,0.1
1505403907509972959,8872,1505403907509783324,-0.00852302518237,0.0219487312213,-0.997585353356,0.0653381512451,1.0,0.0,0.0,0.0,1.0,0.0,0.0,0.0,100000.0,0.0972090661526,-0.00730347028002,-0.0295768678188,1.0,0.0,0.0,0.0,1.0,0.0,0.0,0.0,1.0,-0.12084382344,0.83423397392,9.44002622366,0.1,0.0,0.0,0.0,0.1,0.0,0.0,0.0,0.1
1505403907515209591,8873,1505403907515102078,-0.0086739654559,0.021255498661,-0.997586975342,0.0655224597179,1.0,0.0,0.0,0.0,1.0,0.0,0.0,0.0,100000.0,0.162790358067,-0.0849279016256,-0.00103983283043,1.0,0.0,0.0,0.0,1.0,0.0,0.0,0.0,1.0,-0.240102257207,0.804417213798,9.49380549192,0.1,0.0,0.0,0.0,0.1,0.0,0.0,0.0,0.1
1505403907523752059,8874,1505403907523541885,-0.00857638012152,0.0205712727545,-0.997602264417,0.0655209162853,1.0,0.0,0.0,0.0,1.0,0.0,0.0,0.0,100000.0,0.166699945927,0.0176526792347,-0.0753939896822,1.0,0.0,0.0,0.0,1.0,0.0,0.0,0.0,1.0,-0.210605305806,0.770999611914,9.42940915823,0.1,0.0,0.0,0.0,0.1,0.0,0.0,0.0,0.1
1505403907524947833,8875,1505403907524800365,-0.00872245343909,0.0198530859168,-0.997612560289,0.0655664040477,1.0,0.0,0.0,0.0,1.0,0.0,0.0,0.0,100000.0,0.187001258135,-0.084587149322,-0.0565631240606,1.0,0.0,0.0,0.0,1.0,0.0,0.0,0.0,1.0,-0.286821072549,0.585529829562,9.5307379961,0.1,0.0,0.0,0.0,0.1,0.0,0.0,0.0,0.1
1505403907531224774,8876,1505403907531020009,-0.0088317683362,0.0192153355161,-0.997615332716,0.0656994572218,1.0,0.0,0.0,0.0,1.0,0.0,0.0,0.0,100000.0,0.162715420127,-0.0673640295863,-0.024939538911,1.0,0.0,0.0,0.0,1.0,0.0,0.0,0.0,1.0,-0.300392225012,0.484498275071,9.44890551567,0.1,0.0,0.0,0.0,0.1,0.0,0.0,0.0,0.1
1505403907541670181,8877,1505403907541302369,-0.00878898173623,0.0186754554624,-0.997620472809,0.0657827743009,1.0,0.0,0.0,0.0,1.0,0.0,0.0,0.0,100000.0,0.135623559356,-0.0118960319087,-0.0389510840178,1.0,0.0,0.0,0.0,1.0,0.0,0.0,0.0,1.0,-0.358746930212,0.392044749856,9.29998213053,0.1,0.0,0.0,0.0,0.1,0.0,0.0,0.0,0.1
1505403907541702106,8878,1505403907541383246,-0.00899114020186,0.0182139532924,-0.997608826655,0.0660608831595,1.0,0.0,0.0,0.0,1.0,0.0,0.0,0.0,100000.0,0.100836627185,-0.109797477722,0.0335803925991,1.0,0.0,0.0,0.0,1.0,0.0,0.0,0.0,1.0,-0.427464368939,0.34602098912,9.28961623907,0.1,0.0,0.0,0.0,0.1,0.0,0.0,0.0,0.1
1505403907544972606,8879,1505403907544787504,-0.00886374700656,0.0179408052535,-0.99759900906,0.0663006683032,1.0,0.0,0.0,0.0,1.0,0.0,0.0,0.0,100000.0,0.0341126695275,0.0250921752304,0.0230933427811,1.0,0.0,0.0,0.0,1.0,0.0,0.0,0.0,1.0,-0.440927220881,0.320057230443,9.1735142827,0.1,0.0,0.0,0.0,0.1,0.0,0.0,0.0,0.1
1505403907550960758,8880,1505403907550821003,-0.00905248357774,0.0176992759595,-0.997588420843,0.0664991035421,1.0,0.0,0.0,0.0,1.0,0.0,0.0,0.0,100000.0,0.0180429928005,-0.100158803165,0.00617742259055,1.0,0.0,0.0,0.0,1.0,0.0,0.0,0.0,1.0,-0.420879156888,0.308712016046,9.29390605688,0.1,0.0,0.0,0.0,0.1,0.0,0.0,0.0,0.1
1505403907555096873,8881,1505403907554961612,-0.00920972840941,0.0174852415118,-0.997571067768,0.0667938019937,1.0,0.0,0.0,0.0,1.0,0.0,0.0,0.0,100000.0,0.00320505350828,-0.0798510536551,0.0425140485168,1.0,0.0,0.0,0.0,1.0,0.0,0.0,0.0,1.0,-0.357157926261,0.366767192632,9.18137602806,0.1,0.0,0.0,0.0,0.1,0.0,0.0,0.0,0.1
1505403907560416997,8882,1505403907560087164,-0.00930839917082,0.0172238719959,-0.997565342381,0.0669333968844,1.0,0.0,0.0,0.0,1.0,0.0,0.0,0.0,100000.0,0.0246503353119,-0.058372605592,-0.0200415998697,1.0,0.0,0.0,0.0,1.0,0.0,0.0,0.0,1.0,-0.327470586449,0.409621597826,9.16374887228,0.1,0.0,0.0,0.0,0.1,0.0,0.0,0.0,0.1
1505403907565218569,8883,1505403907565074279,-0.00955234239634,0.0169268677617,-0.997562421418,0.0670182756942,1.0,0.0,0.0,0.0,1.0,0.0,0.0,0.0,100000.0,0.0255475975573,-0.113965913653,-0.0384586080909,1.0,0.0,0.0,0.0,1.0,0.0,0.0,0.0,1.0,-0.283872461691,0.499360253662,9.11003093719,0.1,0.0,0.0,0.0,0.1,0.0,0.0,0.0,0.1
1505403907573877073,8884,1505403907573713313,-0.00949111354491,0.0166416142269,-0.997561129426,0.0671175722067,1.0,0.0,0.0,0.0,1.0,0.0,0.0,0.0,100000.0,0.025829076767,0.00499400403351,-0.036156129092,1.0,0.0,0.0,0.0,1.0,0.0,0.0,0.0,1.0,-0.294686523452,0.591048939526,9.15960508585,0.1,0.0,0.0,0.0,0.1,0.0,0.0,0.0,0.1
1505403907577090078,8885,1505403907576861438,-0.00956469032458,0.0163495347271,-0.997576878471,0.0669446110772,1.0,0.0,0.0,0.0,1.0,0.0,0.0,0.0,100000.0,0.0228268355131,-0.0399550795555,-0.142611026764,1.0,0.0,0.0,0.0,1.0,0.0,0.0,0.0,1.0,-0.243097890168,0.687249082327,9.26958014965,0.1,0.0,0.0,0.0,0.1,0.0,0.0,0.0,0.1
1505403907581398853,8886,1505403907581132531,-0.00954828647787,0.0160877029331,-0.997576450928,0.0670167187684,1.0,0.0,0.0,0.0,1.0,0.0,0.0,0.0,100000.0,0.00729445740581,-0.00350254029036,-0.0424206256866,1.0,0.0,0.0,0.0,1.0,0.0,0.0,0.0,1.0,-0.187534209713,0.718712930381,9.35668669939,0.1,0.0,0.0,0.0,0.1,0.0,0.0,0.0,0.1
1505403907585628857,8887,1505403907585477667,-0.00944264313639,0.0158511400932,-0.997590339201,0.0668811855566,1.0,0.0,0.0,0.0,1.0,0.0,0.0,0.0,100000.0,0.000401135534048,0.0349635928869,-0.126199662685,1.0,0.0,0.0,0.0,1.0,0.0,0.0,0.0,1.0,-0.148616089486,0.774184702337,9.35367611647,0.1,0.0,0.0,0.0,0.1,0.0,0.0,0.0,0.1
1505403907590525598,8888,1505403907590413444,-0.00945364336949,0.0156048813194,-0.997588734701,0.0669614269767,1.0,0.0,0.0,0.0,1.0,0.0,0.0,0.0,100000.0,0.00679951533675,-0.011608495377,-0.043811917305,1.0,0.0,0.0,0.0,1.0,0.0,0.0,0.0,1.0,-0.105547045544,0.6637501508,9.38126494884,0.1,0.0,0.0,0.0,0.1,0.0,0.0,0.0,0.1
1505403907595874372,8889,1505403907595167585,-0.00931830155631,0.0154716277312,-0.997571938496,0.0672608765679,1.0,0.0,0.0,0.0,1.0,0.0,0.0,0.0,100000.0,-0.0257485024631,0.044354043901,0.0502368509769,1.0,0.0,0.0,0.0,1.0,0.0,0.0,0.0,1.0,-0.240967365354,0.568211420625,9.36106530428,0.1,0.0,0.0,0.0,0.1,0.0,0.0,0.0,0.1
1505403907607661899,8890,1505403907607444739,-0.00929619869103,0.0152447390427,-0.997567256078,0.0673850741837,1.0,0.0,0.0,0.0,1.0,0.0,0.0,0.0,100000.0,0.0064052529633,-0.00638068187982,-0.0264777410775,1.0,0.0,0.0,0.0,1.0,0.0,0.0,0.0,1.0,-0.254783576727,0.534896551818,9.40148153305,0.1,0.0,0.0,0.0,0.1,0.0,0.0,0.0,0.1
1505403907607672910,8891,1505403907607476862,-0.00929206413698,0.0150659283204,-0.997535667117,0.0678915913552,1.0,0.0,0.0,0.0,1.0,0.0,0.0,0.0,100000.0,0.00114631280303,-0.0211703665555,0.130303472281,1.0,0.0,0.0,0.0,1.0,0.0,0.0,0.0,1.0,-0.378221967071,0.393311791122,9.43207218647,0.1,0.0,0.0,0.0,0.1,0.0,0.0,0.0,0.1
1505403907610846626,8892,1505403907610679226,-0.00925569517718,0.0148653939158,-0.997523427538,0.0681202149418,1.0,0.0,0.0,0.0,1.0,0.0,0.0,0.0,100000.0,0.00668131932616,-0.00994502287358,0.020235709846,1.0,0.0,0.0,0.0,1.0,0.0,0.0,0.0,1.0,-0.454664246738,0.443958613276,9.25546300411,0.1,0.0,0.0,0.0,0.1,0.0,0.0,0.0,0.1
1505403907615923815,8893,1505403907615732680,-0.00935544278632,0.0146027425185,-0.997508471224,0.0683819086961,1.0,0.0,0.0,0.0,1.0,0.0,0.0,0.0,100000.0,0.0302303452045,-0.0646368637681,0.0290264040232,1.0,0.0,0.0,0.0,1.0,0.0,0.0,0.0,1.0,-0.437642610073,0.38783262074,9.23813375235,0.1,0.0,0.0,0.0,0.1,0.0,0.0,0.0,0.1
1505403907621900791,8894,1505403907621696785,-0.0093714069722,0.0143802162959,-0.997488713871,0.0687142766143,1.0,0.0,0.0,0.0,1.0,0.0,0.0,0.0,100000.0,0.0104102529585,-0.0427966564894,0.0579808503389,1.0,0.0,0.0,0.0,1.0,0.0,0.0,0.0,1.0,-0.579665610939,0.508670155704,8.97204355001,0.1,0.0,0.0,0.0,0.1,0.0,0.0,0.0,0.1
1505403907626169423,8895,1505403907625957042,-0.00953045100792,0.0140283408843,-0.997493983156,0.0686886433287,1.0,0.0,0.0,0.0,1.0,0.0,0.0,0.0,100000.0,0.0540403202176,-0.0905116200447,-0.0843885615468,1.0,0.0,0.0,0.0,1.0,0.0,0.0,0.0,1.0,-0.484372286499,0.580302490294,9.00820851326,0.1,0.0,0.0,0.0,0.1,0.0,0.0,0.0,0.1
1505403907630587688,8896,1505403907630376972,-0.00961320247119,0.0136895853724,-0.997492395124,0.0687684757689,1.0,0.0,0.0,0.0,1.0,0.0,0.0,0.0,100000.0,0.0491746664047,-0.0632735416293,-0.0422162227333,1.0,0.0,0.0,0.0,1.0,0.0,0.0,0.0,1.0,-0.459671845287,0.649323053658,9.01614677906,0.1,0.0,0.0,0.0,0.1,0.0,0.0,0.0,0.1
1505403907641317080,8897,1505403907641044385,-0.00973593086244,0.0133503490149,-0.997508315733,0.0685867325049,1.0,0.0,0.0,0.0,1.0,0.0,0.0,0.0,100000.0,0.0403868108988,-0.0668313205242,-0.147757619619,1.0,0.0,0.0,0.0,1.0,0.0,0.0,0.0,1.0,-0.311209006608,0.755213692784,9.09704991579,0.1,0.0,0.0,0.0,0.1,0.0,0.0,0.0,0.1
1505403907641329789,8898,1505403907641081256,-0.00977329782091,0.0130434326252,-0.997525610004,0.068388660614,1.0,0.0,0.0,0.0,1.0,0.0,0.0,0.0,100000.0,0.0390227884054,-0.0261789001524,-0.156107276678,1.0,0.0,0.0,0.0,1.0,0.0,0.0,0.0,1.0,-0.191067584977,0.644237291813,9.30762833357,0.1,0.0,0.0,0.0,0.1,0.0,0.0,0.0,0.1
1505403907647031501,8899,1505403907646923917,-0.00975446143797,0.012773830944,-0.997530895805,0.0683651346761,1.0,0.0,0.0,0.0,1.0,0.0,0.0,0.0,100000.0,0.0149857737124,0.00152208004147,-0.0829282999039,1.0,0.0,0.0,0.0,1.0,0.0,0.0,0.0,1.0,-0.128334913775,0.804245115817,9.28079185486,0.1,0.0,0.0,0.0,0.1,0.0,0.0,0.0,0.1
1505403907655092990,8900,1505403907654954527,-0.00977758734917,0.012493297613,-0.997541226809,0.0682628531296,1.0,0.0,0.0,0.0,1.0,0.0,0.0,0.0,100000.0,0.0302430354059,-0.018938338384,-0.112770199776,1.0,0.0,0.0,0.0,1.0,0.0,0.0,0.0,1.0,-0.10981359873,0.619627791643,9.44953228235,0.1,0.0,0.0,0.0,0.1,0.0,0.0,0.0,0.1
1505403907656344061,8901,1505403907656207669,-0.00966820768964,0.0122628924151,-0.997531186819,0.0684666236435,1.0,0.0,0.0,0.0,1.0,0.0,0.0,0.0,100000.0,0.0117953512818,0.0383153520525,0.0100998282433,1.0,0.0,0.0,0.0,1.0,0.0,0.0,0.0,1.0,-0.125825090706,0.675454492867,9.46392104626,0.1,0.0,0.0,0.0,0.1,0.0,0.0,0.0,0.1
1505403907660939570,8902,1505403907660720021,-0.00976103038844,0.0120537773,-0.997520826404,0.0686413113878,1.0,0.0,0.0,0.0,1.0,0.0,0.0,0.0,100000.0,0.00634093210101,-0.0479507669806,-0.00635290145874,1.0,0.0,0.0,0.0,1.0,0.0,0.0,0.0,1.0,-0.177380574867,0.566475545615,9.61302667856,0.1,0.0,0.0,0.0,0.1,0.0,0.0,0.0,0.1
1505403907666554484,8903,1505403907666387078,-0.00974664421803,0.0117988654067,-0.99750644611,0.0688961513515,1.0,0.0,0.0,0.0,1.0,0.0,0.0,0.0,100000.0,0.0332237184048,-0.00947833247483,0.0286170244217,1.0,0.0,0.0,0.0,1.0,0.0,0.0,0.0,1.0,-0.229703545198,0.427110206336,9.66208153963,0.1,0.0,0.0,0.0,0.1,0.0,0.0,0.0,0.1
1505403907674612567,8904,1505403907674442925,-0.00985546832879,0.0116564951606,-0.997479323528,0.0692964284693,1.0,0.0,0.0,0.0,1.0,0.0,0.0,0.0,100000.0,-0.0124346092343,-0.064594835043,0.0871452912688,1.0,0.0,0.0,0.0,1.0,0.0,0.0,0.0,1.0,-0.334835094959,0.452964222431,9.62910823822,0.1,0.0,0.0,0.0,0.1,0.0,0.0,0.0,0.1
1505403907676657164,8905,1505403907676482316,-0.0100412066818,0.0115004568499,-0.997455714568,0.069634841398,1.0,0.0,0.0,0.0,1.0,0.0,0.0,0.0,100000.0,-0.00673427805305,-0.0989963412285,0.0587249472737,1.0,0.0,0.0,0.0,1.0,0.0,0.0,0.0,1.0,-0.450758929551,0.385783617944,9.49568228722,0.1,0.0,0.0,0.0,0.1,0.0,0.0,0.0,0.1
1505403907684117348,8906,1505403907683940305,-0.0101538406097,0.0112967028157,-0.997431281521,0.0700008762098,1.0,0.0,0.0,0.0,1.0,0.0,0.0,0.0,100000.0,0.00106079503894,-0.0696269050241,0.0748278945684,1.0,0.0,0.0,0.0,1.0,0.0,0.0,0.0,1.0,-0.44321911037,0.612696047127,9.39445508718,0.1,0.0,0.0,0.0,0.1,0.0,0.0,0.0,0.1
1505403907688340669,8907,1505403907688187646,-0.0104602970351,0.0111233830371,-0.997408194757,0.0703117740291,1.0,0.0,0.0,0.0,1.0,0.0,0.0,0.0,100000.0,-0.0099557004869,-0.153666630387,0.0467999279499,1.0,0.0,0.0,0.0,1.0,0.0,0.0,0.0,1.0,-0.505800785124,0.549770139903,9.32571811676,0.1,0.0,0.0,0.0,0.1,0.0,0.0,0.0,0.1
1505403907692884910,8908,1505403907692764527,-0.0106135582011,0.0109095496214,-0.997396033522,0.0704945843571,1.0,0.0,0.0,0.0,1.0,0.0,0.0,0.0,100000.0,0.00122530758381,-0.084232121706,0.00127500295639,1.0,0.0,0.0,0.0,1.0,0.0,0.0,0.0,1.0,-0.407823294401,0.674713894725,9.28338829279,0.1,0.0,0.0,0.0,0.1,0.0,0.0,0.0,0.1
1505403907696012425,8909,1505403907695890997,-0.0108834076674,0.010636294184,-0.99739305275,0.0705373589644,1.0,0.0,0.0,0.0,1.0,0.0,0.0,0.0,100000.0,0.0244906805456,-0.13456979394,-0.0581096708775,1.0,0.0,0.0,0.0,1.0,0.0,0.0,0.0,1.0,-0.402510855347,0.649204038084,9.28076264858,0.1,0.0,0.0,0.0,0.1,0.0,0.0,0.0,0.1
1505403907701411665,8910,1505403907701260521,-0.011159006451,0.0103374536267,-0.997397491581,0.0704759350083,1.0,0.0,0.0,0.0,1.0,0.0,0.0,0.0,100000.0,0.0447695851326,-0.134473353624,-0.10095526278,1.0,0.0,0.0,0.0,1.0,0.0,0.0,0.0,1.0,-0.424143250287,0.48801022023,9.18663899899,0.1,0.0,0.0,0.0,0.1,0.0,0.0,0.0,0.1
1505403907707587489,8911,1505403907707298864,-0.0113076402254,0.0098649635868,-0.997411447391,0.0703222893451,1.0,0.0,0.0,0.0,1.0,0.0,0.0,0.0,100000.0,0.113295637071,-0.093757905066,-0.137428238988,1.0,0.0,0.0,0.0,1.0,0.0,0.0,0.0,1.0,-0.42177221179,0.537129809707,9.20974583626,0.1,0.0,0.0,0.0,0.1,0.0,0.0,0.0,0.1
1505403907713801635,8912,1505403907713638717,-0.0115404397053,0.00933334512989,-0.997419824339,0.0702381729229,1.0,0.0,0.0,0.0,1.0,0.0,0.0,0.0,100000.0,0.146377295256,-0.123757474124,-0.11080339551,1.0,0.0,0.0,0.0,1.0,0.0,0.0,0.0,1.0,-0.39945814237,0.369517876208,9.21878284216,0.1,0.0,0.0,0.0,0.1,0.0,0.0,0.0,0.1
1505403907717384261,8913,1505403907717115151,-0.0115939247658,0.00883875294309,-0.997417246489,0.0703298923711,1.0,0.0,0.0,0.0,1.0,0.0,0.0,0.0,100000.0,0.139152497053,-0.0486951880157,-0.0383339524269,1.0,0.0,0.0,0.0,1.0,0.0,0.0,0.0,1.0,-0.319887468964,0.332399255037,9.38119310141,0.1,0.0,0.0,0.0,0.1,0.0,0.0,0.0,0.1
1505403907721603345,8914,1505403907721438743,-0.0115552946357,0.0085159146856,-0.997407933912,0.0705079267271,1.0,0.0,0.0,0.0,1.0,0.0,0.0,0.0,100000.0,0.0922641903162,-0.0070021552965,-0.00423812866211,1.0,0.0,0.0,0.0,1.0,0.0,0.0,0.0,1.0,-0.286040188,0.0725376470014,9.54721384048,0.1,0.0,0.0,0.0,0.1,0.0,0.0,0.0,0.1
1505403907726553378,8915,1505403907726401392,-0.0115481929522,0.00836330969862,-0.997380798281,0.0709100663532,1.0,0.0,0.0,0.0,1.0,0.0,0.0,0.0,100000.0,0.0391748994589,-0.0116157224402,0.0849625468254,1.0,0.0,0.0,0.0,1.0,0.0,0.0,0.0,1.0,-0.200488744676,-0.255084693432,9.70702883005,0.1,0.0,0.0,0.0,0.1,0.0,0.0,0.0,0.1
1505403907731782561,8916,1505403907731552336,-0.0113944122268,0.00838010248121,-0.997363108333,0.0711812572797,1.0,0.0,0.0,0.0,1.0,0.0,0.0,0.0,100000.0,-0.00189808383584,0.0507180690765,0.037138029933,1.0,0.0,0.0,0.0,1.0,0.0,0.0,0.0,1.0,-0.226178694516,-0.579196704179,9.80474076271,0.1,0.0,0.0,0.0,0.1,0.0,0.0,0.0,0.1
1505403907742949806,8917,1505403907742730338,-0.0113786550884,0.00859551730636,-0.997332321376,0.0715882953419,1.0,0.0,0.0,0.0,1.0,0.0,0.0,0.0,100000.0,-0.0543233565986,0.00511366501451,0.0903500914574,1.0,0.0,0.0,0.0,1.0,0.0,0.0,0.0,1.0,-0.194502316043,-1.14617248029,9.77822672129,0.1,0.0,0.0,0.0,0.1,0.0,0.0,0.0,0.1
1505403907742957292,8918,1505403907742763624,-0.0112690870547,0.00922138976733,-0.99730707995,0.0718788002842,1.0,0.0,0.0,0.0,1.0,0.0,0.0,0.0,100000.0,-0.201346576214,0.0548443719745,0.0422371029854,1.0,0.0,0.0,0.0,1.0,0.0,0.0,0.0,1.0,-0.180679770559,-1.39654349983,9.76502314806,0.1,0.0,0.0,0.0,0.1,0.0,0.0,0.0,0.1
1505403907748926601,8919,1505403907748792205,-0.0110824497308,0.010012230943,-0.99729319159,0.0719946147168,1.0,0.0,0.0,0.0,1.0,0.0,0.0,0.0,100000.0,-0.241901397705,0.0901914387941,-0.0233970880508,1.0,0.0,0.0,0.0,1.0,0.0,0.0,0.0,1.0,-0.167350738123,-1.83229690194,9.65727068186,0.1,0.0,0.0,0.0,0.1,0.0,0.0,0.0,0.1
1505403907751689115,8920,1505403907751524976,-0.0109822647645,0.0110054001223,-0.99726558938,0.0722469048998,1.0,0.0,0.0,0.0,1.0,0.0,0.0,0.0,100000.0,-0.301951527596,0.0611848495901,0.0277271736413,1.0,0.0,0.0,0.0,1.0,0.0,0.0,0.0,1.0,-0.170910307765,-2.22459121943,9.63253062963,0.1,0.0,0.0,0.0,0.1,0.0,0.0,0.0,0.1
1505403907756334537,8921,1505403907756160048,-0.0107326109607,0.01187009316,-0.997243609096,0.0724506457407,1.0,0.0,0.0,0.0,1.0,0.0,0.0,0.0,100000.0,-0.226489245892,0.115260355175,0.0115211904049,1.0,0.0,0.0,0.0,1.0,0.0,0.0,0.0,1.0,-0.261442662403,-2.61084830761,9.53478306532,0.1,0.0,0.0,0.0,0.1,0.0,0.0,0.0,0.1
1505403907761488171,8922,1505403907761258681,-0.0107429408987,0.0124163005436,-0.997206174533,0.0728716006082,1.0,0.0,0.0,0.0,1.0,0.0,0.0,0.0,100000.0,-0.0721273347735,0.00131166074425,0.0921467244625,1.0,0.0,0.0,0.0,1.0,0.0,0.0,0.0,1.0,-0.232847527787,-3.21465418339,9.47717368603,0.1,0.0,0.0,0.0,0.1,0.0,0.0,0.0,0.1
1505403907766515859,8923,1505403907766332101,-0.010680176294,0.0129920515175,-0.997152580523,0.0735110303862,1.0,0.0,0.0,0.0,1.0,0.0,0.0,0.0,100000.0,-0.0646027475595,0.0264362040907,0.182884246111,1.0,0.0,0.0,0.0,1.0,0.0,0.0,0.0,1.0,-0.297720215842,-3.54365499616,9.41384513378,0.1,0.0,0.0,0.0,0.1,0.0,0.0,0.0,0.1
1505403907777721267,8924,1505403907777530022,-0.0107437757508,0.0133165823921,-0.997123488399,0.0738375839225,1.0,0.0,0.0,0.0,1.0,0.0,0.0,0.0,100000.0,0.0426190309227,-0.0233621373773,0.0537134408951,1.0,0.0,0.0,0.0,1.0,0.0,0.0,0.0,1.0,-0.247729749978,-3.76575353742,9.25033321381,0.1,0.0,0.0,0.0,0.1,0.0,0.0,0.0,0.1
1505403907778068217,8925,1505403907777920491,-0.0108877660056,0.0135662933663,-0.997103417973,0.0740417861849,1.0,0.0,0.0,0.0,1.0,0.0,0.0,0.0,100000.0,0.0804058089852,-0.0596202425659,0.00616434216499,1.0,0.0,0.0,0.0,1.0,0.0,0.0,0.0,1.0,-0.230803398788,-3.92088267207,9.1408044219,0.1,0.0,0.0,0.0,0.1,0.0,0.0,0.0,0.1
1505403907783216334,8926,1505403907783034214,-0.0110495192417,0.0138697426001,-0.99710175018,0.0739840398496,1.0,0.0,0.0,0.0,1.0,0.0,0.0,0.0,100000.0,0.0534795187414,-0.0618962980807,-0.101542055607,1.0,0.0,0.0,0.0,1.0,0.0,0.0,0.0,1.0,-0.256436505914,-3.92962352633,8.91927832365,0.1,0.0,0.0,0.0,0.1,0.0,0.0,0.0,0.1
1505403907786388226,8927,1505403907786208882,-0.0113372702745,0.0138266462135,-0.99713225796,0.0735360475766,1.0,0.0,0.0,0.0,1.0,0.0,0.0,0.0,100000.0,0.192582651973,-0.123134091496,-0.259867608547,1.0,0.0,0.0,0.0,1.0,0.0,0.0,0.0,1.0,-0.246565496549,-4.01801836491,8.81698509455,0.1,0.0,0.0,0.0,0.1,0.0,0.0,0.0,0.1
1505403907791389231,8928,1505403907791264289,-0.0114668388458,0.0140908218362,-0.997145372456,0.0732875605856,1.0,0.0,0.0,0.0,1.0,0.0,0.0,0.0,100000.0,0.0778760761023,-0.0477843508124,-0.178068190813,1.0,0.0,0.0,0.0,1.0,0.0,0.0,0.0,1.0,-0.209210560098,-4.10744652152,8.74469138384,0.1,0.0,0.0,0.0,0.1,0.0,0.0,0.0,0.1
1505403907796575346,8929,1505403907796423143,-0.0115032084966,0.0142529184995,-0.997193743623,0.0725890362749,1.0,0.0,0.0,0.0,1.0,0.0,0.0,0.0,100000.0,0.10684196651,-0.0105662597343,-0.357070744038,1.0,0.0,0.0,0.0,1.0,0.0,0.0,0.0,1.0,-0.170623684675,-3.90374851823,8.84095935822,0.1,0.0,0.0,0.0,0.1,0.0,0.0,0.0,0.1
1505403907801810952,8930,1505403907801639897,-0.011317502713,0.0144371950391,-0.997224714417,0.0721550447817,1.0,0.0,0.0,0.0,1.0,0.0,0.0,0.0,100000.0,0.114339619875,0.0851197689772,-0.25081717968,1.0,0.0,0.0,0.0,1.0,0.0,0.0,0.0,1.0,-0.0775332892314,-4.02196763754,9.08728859425,0.1,0.0,0.0,0.0,0.1,0.0,0.0,0.0,0.1
1505403907809926476,8931,1505403907809754242,-0.0111019027636,0.0146475129222,-0.99723967845,0.0719390147605,1.0,0.0,0.0,0.0,1.0,0.0,0.0,0.0,100000.0,0.0978168025613,0.0931966379285,-0.16323363781,1.0,0.0,0.0,0.0,1.0,0.0,0.0,0.0,1.0,-0.119946013391,-3.96809549332,9.3519120574,0.1,0.0,0.0,0.0,0.1,0.0,0.0,0.0,0.1
1505403907811874855,8932,1505403907811745730,-0.0109377846491,0.0146952571237,-0.997246905129,0.0718541891321,1.0,0.0,0.0,0.0,1.0,0.0,0.0,0.0,100000.0,0.191762253642,0.0642687827349,-0.109468817711,1.0,0.0,0.0,0.0,1.0,0.0,0.0,0.0,1.0,-0.134610511921,-4.51629145145,9.73571289778,0.1,0.0,0.0,0.0,0.1,0.0,0.0,0.0,0.1
1505403907818044245,8933,1505403907817871315,-0.0108578699312,0.0151316271825,-0.997191045396,0.0725476360851,1.0,0.0,0.0,0.0,1.0,0.0,0.0,0.0,100000.0,0.0492662414908,0.0380586199462,0.200401961803,1.0,0.0,0.0,0.0,1.0,0.0,0.0,0.0,1.0,-0.124928786606,-4.72479301095,9.90454795361,0.1,0.0,0.0,0.0,0.1,0.0,0.0,0.0,0.1
1505403907822111673,8934,1505403907821774702,-0.0107932995535,0.0156730198352,-0.997140442046,0.0731354904958,1.0,0.0,0.0,0.0,1.0,0.0,0.0,0.0,100000.0,0.00582209229469,0.028182124719,0.159431755543,1.0,0.0,0.0,0.0,1.0,0.0,0.0,0.0,1.0,-0.259922767803,-4.8204353869,10.1202269554,0.1,0.0,0.0,0.0,0.1,0.0,0.0,0.0,0.1
1505403907830225448,8935,1505403907830097453,-0.0106241265122,0.0164904942384,-0.997061972673,0.0740446769493,1.0,0.0,0.0,0.0,1.0,0.0,0.0,0.0,100000.0,-0.109467446804,0.0851019918919,0.290474951267,1.0,0.0,0.0,0.0,1.0,0.0,0.0,0.0,1.0,-0.109555013664,-4.59751118422,10.036202836,0.1,0.0,0.0,0.0,0.1,0.0,0.0,0.0,0.1
1505403907831735643,8936,1505403907831502369,-0.0103454239016,0.0173064958226,-0.99697116165,0.0751129832008,1.0,0.0,0.0,0.0,1.0,0.0,0.0,0.0,100000.0,-0.144520625472,0.116318956017,0.355145812035,1.0,0.0,0.0,0.0,1.0,0.0,0.0,0.0,1.0,-0.274618015066,-3.96756335497,9.96603300571,0.1,0.0,0.0,0.0,0.1,0.0,0.0,0.0,0.1
1505403907843048675,8937,1505403907842852253,-0.0101402338651,0.0179477945317,-0.996925880694,0.0755899512519,1.0,0.0,0.0,0.0,1.0,0.0,0.0,0.0,100000.0,-0.11143475771,0.0937653854489,0.117517113686,1.0,0.0,0.0,0.0,1.0,0.0,0.0,0.0,1.0,-0.192167602852,-3.48354351521,9.81191148758,0.1,0.0,0.0,0.0,0.1,0.0,0.0,0.0,0.1
1505403907843056428,8938,1505403907842888946,-0.0099135984521,0.0182479317119,-0.996870187881,0.0762794996545,1.0,0.0,0.0,0.0,1.0,0.0,0.0,0.0,100000.0,-0.0194443948567,0.0869224742055,0.205651879311,1.0,0.0,0.0,0.0,1.0,0.0,0.0,0.0,1.0,-0.259056966007,-2.66011199355,9.71809333563,0.1,0.0,0.0,0.0,0.1,0.0,0.0,0.0,0.1
1505403907849564068,8939,1505403907849378690,-0.00984529140069,0.0183844388159,-0.996868337809,0.0762797464638,1.0,0.0,0.0,0.0,1.0,0.0,0.0,0.0,100000.0,-0.000494137406349,0.0227184500545,-0.0746703147888,1.0,0.0,0.0,0.0,1.0,0.0,0.0,0.0,1.0,-0.301750262082,-2.0247924,9.74214411974,0.1,0.0,0.0,0.0,0.1,0.0,0.0,0.0,0.1
1505403907851939342,8940,1505403907851821229,-0.00972823136049,0.0178859760909,-0.996878729773,0.0762774639107,1.0,0.0,0.0,0.0,1.0,0.0,0.0,0.0,100000.0,0.196828514338,0.0299702826887,-0.0795261263847,1.0,0.0,0.0,0.0,1.0,0.0,0.0,0.0,1.0,-0.139106115326,-1.02534436435,9.69541991949,0.1,0.0,0.0,0.0,0.1,0.0,0.0,0.0,0.1
1505403907857075469,8941,1505403907856879034,-0.00960757560252,0.0173260225835,-0.996885262805,0.0763365982683,1.0,0.0,0.0,0.0,1.0,0.0,0.0,0.0,100000.0,0.19202786684,0.0220437161624,-0.0525136590004,1.0,0.0,0.0,0.0,1.0,0.0,0.0,0.0,1.0,-0.298245892301,-0.483869829029,9.56737201214,0.1,0.0,0.0,0.0,0.1,0.0,0.0,0.0,0.1
1505403907864076756,8942,1505403907863887129,-0.00963577266724,0.016581137567,-0.99690721791,0.0762116568567,1.0,0.0,0.0,0.0,1.0,0.0,0.0,0.0,100000.0,0.226487278938,-0.03740253672,-0.126559913158,1.0,0.0,0.0,0.0,1.0,0.0,0.0,0.0,1.0,-0.202066522464,0.105794459209,9.3224137187,0.1,0.0,0.0,0.0,0.1,0.0,0.0,0.0,0.1
1505403907867536122,8943,1505403907867381090,-0.00953468793017,0.0157728221685,-0.996899993644,0.076489937107,1.0,0.0,0.0,0.0,1.0,0.0,0.0,0.0,100000.0,0.24008873105,-0.00102159008384,0.0359057784081,1.0,0.0,0.0,0.0,1.0,0.0,0.0,0.0,1.0,-0.384654722363,0.478646797687,9.16473721266,0.1,0.0,0.0,0.0,0.1,0.0,0.0,0.0,0.1
1505403907877715046,8944,1505403907877479018,-0.00963639883808,0.0150383571246,-0.996907364804,0.0765290378379,1.0,0.0,0.0,0.0,1.0,0.0,0.0,0.0,100000.0,0.192615956068,-0.0829807817936,-0.0613063871861,1.0,0.0,0.0,0.0,1.0,0.0,0.0,0.0,1.0,-0.503537371755,0.646991735697,9.15242501497,0.1,0.0,0.0,0.0,0.1,0.0,0.0,0.0,0.1
1505403907877724511,8945,1505403907877526650,-0.00953508600628,0.0142206058899,-0.996892899278,0.0768856545244,1.0,0.0,0.0,0.0,1.0,0.0,0.0,0.0,100000.0,0.229857891798,-0.00426221452653,0.066750690341,1.0,0.0,0.0,0.0,1.0,0.0,0.0,0.0,1.0,-0.460681396723,0.727715326846,9.40074845552,0.1,0.0,0.0,0.0,0.1,0.0,0.0,0.0,0.1
1505403907884376063,8946,1505403907884172838,-0.00944075909098,0.0134893354313,-0.996871753162,0.0773021192817,1.0,0.0,0.0,0.0,1.0,0.0,0.0,0.0,100000.0,0.205050632358,-0.0109696434811,0.0905238687992,1.0,0.0,0.0,0.0,1.0,0.0,0.0,0.0,1.0,-0.505246851593,0.53169087097,9.51559103727,0.1,0.0,0.0,0.0,0.1,0.0,0.0,0.0,0.1
1505403907887339745,8947,1505403907887177691,-0.00938673411534,0.0128428991691,-0.996852595543,0.0776649980571,1.0,0.0,0.0,0.0,1.0,0.0,0.0,0.0,100000.0,0.196797579527,-0.014756587334,0.0686703771353,1.0,0.0,0.0,0.0,1.0,0.0,0.0,0.0,1.0,-0.36801809743,0.156661113352,9.59123762846,0.1,0.0,0.0,0.0,0.1,0.0,0.0,0.0,0.1
1505403907892366258,8948,1505403907892200592,-0.00916923565054,0.0124079537,-0.996806496331,0.0783503457212,1.0,0.0,0.0,0.0,1.0,0.0,0.0,0.0,100000.0,0.130330622196,0.0513419881463,0.197553634644,1.0,0.0,0.0,0.0,1.0,0.0,0.0,0.0,1.0,-0.45432286188,-0.0501803249121,9.39772911072,0.1,0.0,0.0,0.0,0.1,0.0,0.0,0.0,0.1
1505403907898954488,8949,1505403907898788007,-0.0091265208931,0.0120137396472,-0.996775767117,0.0788063878455,1.0,0.0,0.0,0.0,1.0,0.0,0.0,0.0,100000.0,0.114935159683,-0.0148360133171,0.107015967369,1.0,0.0,0.0,0.0,1.0,0.0,0.0,0.0,1.0,-0.428148781508,-0.175168345496,9.31893233061,0.1,0.0,0.0,0.0,0.1,0.0,0.0,0.0,0.1
1505403907902538414,8950,1505403907902324665,-0.00889261817855,0.0116251887423,-0.996737805754,0.0793695338888,1.0,0.0,0.0,0.0,1.0,0.0,0.0,0.0,100000.0,0.12285476923,0.0662762150168,0.153215587139,1.0,0.0,0.0,0.0,1.0,0.0,0.0,0.0,1.0,-0.367813105881,-0.214914710075,9.36735750437,0.1,0.0,0.0,0.0,0.1,0.0,0.0,0.0,0.1
1505403907909668938,8951,1505403907909440321,-0.00871406637987,0.011294579117,-0.996707364839,0.0798180831928,1.0,0.0,0.0,0.0,1.0,0.0,0.0,0.0,100000.0,0.107916906476,0.0449098832905,0.105192668736,1.0,0.0,0.0,0.0,1.0,0.0,0.0,0.0,1.0,-0.333015251905,-0.411270803213,9.51212892532,0.1,0.0,0.0,0.0,0.1,0.0,0.0,0.0,0.1
1505403907914736363,8952,1505403907914503593,-0.0084908332299,0.0109868111121,-0.99669346911,0.0800582560784,1.0,0.0,0.0,0.0,1.0,0.0,0.0,0.0,100000.0,0.115094199777,0.0803478062153,0.0212910789996,1.0,0.0,0.0,0.0,1.0,0.0,0.0,0.0,1.0,-0.0961491230875,-0.637052474916,9.66120535135,0.1,0.0,0.0,0.0,0.1,0.0,0.0,0.0,0.1
1505403907917184378,8953,1505403907917050441,-0.00819178756024,0.0105970749406,-0.996673761603,0.0803866254555,1.0,0.0,0.0,0.0,1.0,0.0,0.0,0.0,100000.0,0.161228582263,0.0985260605812,0.0552436113358,1.0,0.0,0.0,0.0,1.0,0.0,0.0,0.0,1.0,-0.240313674137,-0.844317951798,9.55034650564,0.1,0.0,0.0,0.0,0.1,0.0,0.0,0.0,0.1
1505403907922536867,8954,1505403907922352252,-0.00798653041792,0.0103243949578,-0.996673710719,0.0804433748756,1.0,0.0,0.0,0.0,1.0,0.0,0.0,0.0,100000.0,0.13533744216,0.0733287110925,-0.0525211691856,1.0,0.0,0.0,0.0,1.0,0.0,0.0,0.0,1.0,-0.144011254609,-1.21800232232,9.5105582118,0.1,0.0,0.0,0.0,0.1,0.0,0.0,0.0,0.1
1505403907927248269,8955,1505403907927049618,-0.00771112861026,0.0100300623621,-0.996661593318,0.0806573291772,1.0,0.0,0.0,0.0,1.0,0.0,0.0,0.0,100000.0,0.14522780478,0.0960277318954,0.00889459252357,1.0,0.0,0.0,0.0,1.0,0.0,0.0,0.0,1.0,-0.220829565078,-1.26582453251,9.42672218084,0.1,0.0,0.0,0.0,0.1,0.0,0.0,0.0,0.1
1505403907932334935,8956,1505403907932167066,-0.00754522212519,0.00971083790705,-0.996665695882,0.0806613904075,1.0,0.0,0.0,0.0,1.0,0.0,0.0,0.0,100000.0,0.174153193831,0.0560947731137,-0.0732453688979,1.0,0.0,0.0,0.0,1.0,0.0,0.0,0.0,1.0,-0.148391493224,-1.56803953946,9.47654283047,0.1,0.0,0.0,0.0,0.1,0.0,0.0,0.0,0.1
1505403907940311948,8957,1505403907940117107,-0.00732171208592,0.00933534136393,-0.99667476984,0.0806141867111,1.0,0.0,0.0,0.0,1.0,0.0,0.0,0.0,100000.0,0.19769385457,0.0842776745558,-0.0951555073261,1.0,0.0,0.0,0.0,1.0,0.0,0.0,0.0,1.0,-0.0230588408653,-1.63970400095,9.52872802019,0.1,0.0,0.0,0.0,0.1,0.0,0.0,0.0,0.1
1505403907943693205,8958,1505403907943516604,-0.00714654404329,0.00879826911257,-0.99668400769,0.0805760894045,1.0,0.0,0.0,0.0,1.0,0.0,0.0,0.0,100000.0,0.274839997292,0.0455446951091,-0.0906971693039,1.0,0.0,0.0,0.0,1.0,0.0,0.0,0.0,1.0,-0.275386249647,-1.84668858647,9.30773698092,0.1,0.0,0.0,0.0,0.1,0.0,0.0,0.0,0.1
1505403907949810827,8959,1505403907949683341,-0.00708916169838,0.00809412400899,-0.99669420409,0.0805288300899,1.0,0.0,0.0,0.0,1.0,0.0,0.0,0.0,100000.0,0.356237500906,-0.00310291815549,-0.0967764854431,1.0,0.0,0.0,0.0,1.0,0.0,0.0,0.0,1.0,-0.237383755296,-2.14949910939,9.07939238548,0.1,0.0,0.0,0.0,0.1,0.0,0.0,0.0,0.1
1505403907952333516,8960,1505403907952177818,-0.00703544571309,0.00741464961649,-0.996687525513,0.0806814846303,1.0,0.0,0.0,0.0,1.0,0.0,0.0,0.0,100000.0,0.373367369175,-0.0269852038473,-0.0193885583431,1.0,0.0,0.0,0.0,1.0,0.0,0.0,0.0,1.0,-0.597130890936,-2.57751839757,8.69629015923,0.1,0.0,0.0,0.0,0.1,0.0,0.0,0.0,0.1
1505403907957269708,8961,1505403907957153773,-0.00713615428868,0.0067915797253,-0.996665592916,0.0809978125865,1.0,0.0,0.0,0.0,1.0,0.0,0.0,0.0,100000.0,0.386464297771,-0.080001950264,0.0494091548026,1.0,0.0,0.0,0.0,1.0,0.0,0.0,0.0,1.0,-0.485478693247,-3.3150054872,8.52232005596,0.1,0.0,0.0,0.0,0.1,0.0,0.0,0.0,0.1
1505403907962409916,8962,1505403907962276912,-0.00704582041065,0.00681270242198,-0.996619227163,0.0815724190549,1.0,0.0,0.0,0.0,1.0,0.0,0.0,0.0,100000.0,0.169120281935,0.0192569773644,0.152921333909,1.0,0.0,0.0,0.0,1.0,0.0,0.0,0.0,1.0,-0.439197223634,-3.82557324767,8.59182106256,0.1,0.0,0.0,0.0,0.1,0.0,0.0,0.0,0.1
1505403907974144545,8963,1505403907973964326,-0.00685474191597,0.00719160904591,-0.996559329405,0.0822848482257,1.0,0.0,0.0,0.0,1.0,0.0,0.0,0.0,100000.0,0.0631132125854,0.074667006731,0.20876955986,1.0,0.0,0.0,0.0,1.0,0.0,0.0,0.0,1.0,-0.347065223008,-4.44840379953,8.63892085552,0.1,0.0,0.0,0.0,0.1,0.0,0.0,0.0,0.1
1505403907981735022,8964,1505403907981533777,-0.00656289532598,0.00811169122379,-0.996471377941,0.0832821818606,1.0,0.0,0.0,0.0,1.0,0.0,0.0,0.0,100000.0,-0.121004737914,0.143991664052,0.326597005129,1.0,0.0,0.0,0.0,1.0,0.0,0.0,0.0,1.0,-0.174746351317,-4.97890951633,8.93260222673,0.1,0.0,0.0,0.0,0.1,0.0,0.0,0.0,0.1
1505403907981746911,8965,1505403907981571579,-0.00605224069907,0.00936838041706,-0.996412673105,0.0838891453426,1.0,0.0,0.0,0.0,1.0,0.0,0.0,0.0,100000.0,-0.234327495098,0.237045630813,0.169197916985,1.0,0.0,0.0,0.0,1.0,0.0,0.0,0.0,1.0,-0.26878002733,-5.1956977725,8.97369487286,0.1,0.0,0.0,0.0,0.1,0.0,0.0,0.0,0.1
1505403907982475503,8966,1505403907982360352,-0.00571275553374,0.0102795967856,-0.996373464348,0.0842710736708,1.0,0.0,0.0,0.0,1.0,0.0,0.0,0.0,100000.0,-0.0915514826775,0.161102131009,0.0792173147202,1.0,0.0,0.0,0.0,1.0,0.0,0.0,0.0,1.0,-0.245223431662,-5.49238563776,9.18290468454,0.1,0.0,0.0,0.0,0.1,0.0,0.0,0.0,0.1
1505403907989409779,8967,1505403907989270024,-0.00513711638007,0.0114583912151,-0.996370952942,0.084185743687,1.0,0.0,0.0,0.0,1.0,0.0,0.0,0.0,100000.0,-0.198680818081,0.263213604689,-0.10601580143,1.0,0.0,0.0,0.0,1.0,0.0,0.0,0.0,1.0,-0.341432975233,-5.42235482931,9.32604756355,0.1,0.0,0.0,0.0,0.1,0.0,0.0,0.0,0.1
1505403907992659369,8968,1505403907992530390,-0.00473156987203,0.0120200365037,-0.996409303591,0.0836757473028,1.0,0.0,0.0,0.0,1.0,0.0,0.0,0.0,100000.0,0.0288438908756,0.171828940511,-0.279584646225,1.0,0.0,0.0,0.0,1.0,0.0,0.0,0.0,1.0,-0.379822726548,-5.20320320129,9.3461093545,0.1,0.0,0.0,0.0,0.1,0.0,0.0,0.0,0.1
1505403908000230428,8969,1505403907999925358,-0.00442587422464,0.0123793176427,-0.996426497415,0.0834350009342,1.0,0.0,0.0,0.0,1.0,0.0,0.0,0.0,100000.0,0.0925771892071,0.12717603147,-0.169597327709,1.0,0.0,0.0,0.0,1.0,0.0,0.0,0.0,1.0,-0.366602834314,-5.03316426277,9.32758439779,0.1,0.0,0.0,0.0,0.1,0.0,0.0,0.0,0.1
1505403908008934584,8970,1505403908008726452,-0.00414080121958,0.0124049190472,-0.996472826872,0.082890753738,1.0,0.0,0.0,0.0,1.0,0.0,0.0,0.0,100000.0,0.196821168065,0.103584118187,-0.295314073563,1.0,0.0,0.0,0.0,1.0,0.0,0.0,0.0,1.0,-0.440112292767,-4.48623936176,8.97556115389,0.1,0.0,0.0,0.0,0.1,0.0,0.0,0.0,0.1
1505403908010026119,8971,1505403908009864245,-0.00416327762306,0.0117557050349,-0.996496361027,0.0827011062713,1.0,0.0,0.0,0.0,1.0,0.0,0.0,0.0,100000.0,0.441028147936,-0.0397641658783,-0.151912689209,1.0,0.0,0.0,0.0,1.0,0.0,0.0,0.0,1.0,-0.412246730924,-4.30511109233,8.8412771225,0.1,0.0,0.0,0.0,0.1,0.0,0.0,0.0,0.1
1505403908015482376,8972,1505403908015262780,-0.00399377842891,0.0112098243782,-0.996514566,0.0825657878336,1.0,0.0,0.0,0.0,1.0,0.0,0.0,0.0,100000.0,0.398227602243,0.0425205715001,-0.132961750031,1.0,0.0,0.0,0.0,1.0,0.0,0.0,0.0,1.0,-0.386665209383,-4.05312635303,8.65225059986,0.1,0.0,0.0,0.0,0.1,0.0,0.0,0.0,0.1
1505403908017805381,8973,1505403908017668540,-0.00390922228867,0.0105947623302,-0.996510578186,0.0826990722771,1.0,0.0,0.0,0.0,1.0,0.0,0.0,0.0,100000.0,0.432514309883,0.000374873168766,-0.024545788765,1.0,0.0,0.0,0.0,1.0,0.0,0.0,0.0,1.0,-0.42011763975,-4.29778177738,8.8413069129,0.1,0.0,0.0,0.0,0.1,0.0,0.0,0.0,0.1
1505403908024016567,8974,1505403908023841938,-0.00383449896959,0.0101437966383,-0.996463944263,0.0833187121371,1.0,0.0,0.0,0.0,1.0,0.0,0.0,0.0,100000.0,0.388314962387,0.01648706384,0.172671973705,1.0,0.0,0.0,0.0,1.0,0.0,0.0,0.0,1.0,-0.150697018392,-4.63748230934,9.06712633371,0.1,0.0,0.0,0.0,0.1,0.0,0.0,0.0,0.1
1505403908027789535,8975,1505403908027537922,-0.00361709864924,0.0104056650447,-0.99641595232,0.0838682818166,1.0,0.0,0.0,0.0,1.0,0.0,0.0,0.0,100000.0,0.108362667263,0.0866833478212,0.14383880794,1.0,0.0,0.0,0.0,1.0,0.0,0.0,0.0,1.0,-0.343905067444,-4.61119782925,9.25266504288,0.1,0.0,0.0,0.0,0.1,0.0,0.0,0.0,0.1
1505403908032623159,8976,1505403908032464924,-0.00350574627592,0.0105533316373,-0.996355933961,0.0845647077407,1.0,0.0,0.0,0.0,1.0,0.0,0.0,0.0,100000.0,0.129552602768,0.0558619461954,0.206878080964,1.0,0.0,0.0,0.0,1.0,0.0,0.0,0.0,1.0,-0.0688034238294,-4.27910903692,9.41763435602,0.1,0.0,0.0,0.0,0.1,0.0,0.0,0.0,0.1
1505403908040873509,8977,1505403908040679761,-0.003159983707,0.0111507010229,-0.996302966227,0.0851238853468,1.0,0.0,0.0,0.0,1.0,0.0,0.0,0.0,100000.0,-0.0964510887861,0.154680579901,0.14800542593,1.0,0.0,0.0,0.0,1.0,0.0,0.0,0.0,1.0,-0.267701640353,-3.3320859015,9.29443585873,0.1,0.0,0.0,0.0,0.1,0.0,0.0,0.0,0.1
1505403908045809041,8978,1505403908045641431,-0.00279760138023,0.0114788789554,-0.996273217571,0.0854405332137,1.0,0.0,0.0,0.0,1.0,0.0,0.0,0.0,100000.0,-0.0334040783346,0.152552485466,0.0545826554298,1.0,0.0,0.0,0.0,1.0,0.0,0.0,0.0,1.0,-0.277876924351,-2.61152998209,9.28316924572,0.1,0.0,0.0,0.0,0.1,0.0,0.0,0.0,0.1
1505403908048645322,8979,1505403908048512984,-0.00240445734421,0.0113457571704,-0.996248457717,0.085758398283,1.0,0.0,0.0,0.0,1.0,0.0,0.0,0.0,100000.0,0.121715113521,0.153045654297,0.055815577507,1.0,0.0,0.0,0.0,1.0,0.0,0.0,0.0,1.0,-0.241201143339,-2.12952639759,9.28355535269,0.1,0.0,0.0,0.0,0.1,0.0,0.0,0.0,0.1
1505403908055442931,8980,1505403908055329270,-0.00196300756219,0.0114975535487,-0.99624051126,0.0858416949332,1.0,0.0,0.0,0.0,1.0,0.0,0.0,0.0,100000.0,-0.00873932987452,0.166749283671,-0.0409328937531,1.0,0.0,0.0,0.0,1.0,0.0,0.0,0.0,1.0,-0.46639797762,-1.76245491207,9.29423784018,0.1,0.0,0.0,0.0,0.1,0.0,0.0,0.0,0.1
1505403908059279422,8981,1505403908059128147,-0.00162488398065,0.0109311393467,-0.996249362664,0.0858200287536,1.0,0.0,0.0,0.0,1.0,0.0,0.0,0.0,100000.0,0.253974169493,0.123049154878,-0.0828028619289,1.0,0.0,0.0,0.0,1.0,0.0,0.0,0.0,1.0,-0.16740517132,-1.46715901792,9.39775598049,0.1,0.0,0.0,0.0,0.1,0.0,0.0,0.0,0.1
1505403908063274188,8982,1505403908063019177,-0.00124867587955,0.0107094966701,-0.996236203094,0.0860068319045,1.0,0.0,0.0,0.0,1.0,0.0,0.0,0.0,100000.0,0.0737389177084,0.127780616283,-0.00142041221261,1.0,0.0,0.0,0.0,1.0,0.0,0.0,0.0,1.0,-0.467828245461,-0.658915416896,9.13268098831,0.1,0.0,0.0,0.0,0.1,0.0,0.0,0.0,0.1
1505403908073970224,8983,1505403908073834640,-0.000902784356946,0.0100386644084,-0.996234231101,0.0861148476201,1.0,0.0,0.0,0.0,1.0,0.0,0.0,0.0,100000.0,0.236536487937,0.115854494274,-0.0309076160192,1.0,0.0,0.0,0.0,1.0,0.0,0.0,0.0,1.0,-0.302398331091,-0.396500422806,8.85987626314,0.1,0.0,0.0,0.0,0.1,0.0,0.0,0.0,0.1
1505403908074030961,8984,1505403908073865487,-0.000623826829894,0.00919573463831,-0.996203917588,0.0865609836299,1.0,0.0,0.0,0.0,1.0,0.0,0.0,0.0,100000.0,0.285578638315,0.0795912966132,0.104444682598,1.0,0.0,0.0,0.0,1.0,0.0,0.0,0.0,1.0,-0.354655203968,-0.0697914675809,8.59492160082,0.1,0.0,0.0,0.0,0.1,0.0,0.0,0.0,0.1
1505403908078102549,8985,1505403908077994584,-0.000359177554458,0.00854436871635,-0.996187726218,0.086815199637,1.0,0.0,0.0,0.0,1.0,0.0,0.0,0.0,100000.0,0.227449417114,0.071447789669,0.0276788696647,1.0,0.0,0.0,0.0,1.0,0.0,0.0,0.0,1.0,-0.415628124028,-0.347910160571,8.48868085146,0.1,0.0,0.0,0.0,0.1,0.0,0.0,0.0,0.1
1505403908083101483,8986,1505403908082948469,-0.000126130869956,0.00775893884612,-0.99617358698,0.0870515224533,1.0,0.0,0.0,0.0,1.0,0.0,0.0,0.0,100000.0,0.299548059702,0.0716138184071,0.0208769589663,1.0,0.0,0.0,0.0,1.0,0.0,0.0,0.0,1.0,-0.176345121115,-0.683352527022,8.67860867977,0.1,0.0,0.0,0.0,0.1,0.0,0.0,0.0,0.1
1505403908088183454,8987,1505403908088058760,6.20330981767e-05,0.00739012192307,-0.99615576036,0.0872873607789,1.0,0.0,0.0,0.0,1.0,0.0,0.0,0.0,100000.0,0.113084055483,0.0623220875859,0.0183873921633,1.0,0.0,0.0,0.0,1.0,0.0,0.0,0.0,1.0,-0.286036555469,-0.392393290251,8.76378118992,0.1,0.0,0.0,0.0,0.1,0.0,0.0,0.0,0.1
1505403908093309214,8988,1505403908093185922,0.000374298162019,0.00692691117311,-0.996160386293,0.0872717742589,1.0,0.0,0.0,0.0,1.0,0.0,0.0,0.0,100000.0,0.162147149444,0.114727154374,-0.0787157043815,1.0,0.0,0.0,0.0,1.0,0.0,0.0,0.0,1.0,-0.167520755157,-0.438859197497,8.80330253839,0.1,0.0,0.0,0.0,0.1,0.0,0.0,0.0,0.1
1505403908098183302,8989,1505403908098082701,0.000753723293931,0.00647005490728,-0.996132554089,0.0876213728222,1.0,0.0,0.0,0.0,1.0,0.0,0.0,0.0,100000.0,0.118069656193,0.13921995461,0.0633276849985,1.0,0.0,0.0,0.0,1.0,0.0,0.0,0.0,1.0,-0.246017221734,0.323420771211,8.88794583082,0.1,0.0,0.0,0.0,0.1,0.0,0.0,0.0,0.1
1505403908109110820,8990,1505403908108932305,0.00111672158468,0.00592392219246,-0.996129366119,0.0876923373772,1.0,0.0,0.0,0.0,1.0,0.0,0.0,0.0,100000.0,0.154875859618,0.129772603512,-0.0449253544211,1.0,0.0,0.0,0.0,1.0,0.0,0.0,0.0,1.0,-0.201520529389,0.271209697425,8.93421382904,0.1,0.0,0.0,0.0,0.1,0.0,0.0,0.0,0.1
1505403908112578726,8991,1505403908112483143,0.00145417543475,0.00515705641368,-0.996104792656,0.0880143862699,1.0,0.0,0.0,0.0,1.0,0.0,0.0,0.0,100000.0,0.239619761705,0.116088569164,0.0545535609126,1.0,0.0,0.0,0.0,1.0,0.0,0.0,0.0,1.0,-0.139829125814,0.360033430159,9.20696423054,0.1,0.0,0.0,0.0,0.1,0.0,0.0,0.0,0.1
1505403908113606591,8992,1505403908113346238,0.00162109488121,0.00454166153822,-0.996080651302,0.0883180698588,1.0,0.0,0.0,0.0,1.0,0.0,0.0,0.0,100000.0,0.176563933492,0.0466319918633,0.0453473590314,1.0,0.0,0.0,0.0,1.0,0.0,0.0,0.0,1.0,-0.287639395893,0.264401586726,9.25940409899,0.1,0.0,0.0,0.0,0.1,0.0,0.0,0.0,0.1
1505403908119161894,8993,1505403908118980213,0.00175088111902,0.00386141199264,-0.99606872519,0.0884823067696,1.0,0.0,0.0,0.0,1.0,0.0,0.0,0.0,100000.0,0.221443623304,0.0274461712688,-0.00945135951042,1.0,0.0,0.0,0.0,1.0,0.0,0.0,0.0,1.0,-0.297865699604,-0.024091579346,9.13223705292,0.1,0.0,0.0,0.0,0.1,0.0,0.0,0.0,0.1
1505403908124223612,8994,1505403908124054342,0.00181773496593,0.00329008554564,-0.996030487103,0.0889333454815,1.0,0.0,0.0,0.0,1.0,0.0,0.0,0.0,100000.0,0.157009422779,-0.00524030532688,0.106732912362,1.0,0.0,0.0,0.0,1.0,0.0,0.0,0.0,1.0,-0.494059898704,0.314160957932,8.92094483376,0.1,0.0,0.0,0.0,0.1,0.0,0.0,0.0,0.1
1505403908128522716,8995,1505403908128144384,0.00182608355098,0.00270396772005,-0.996026121284,0.0890017960303,1.0,0.0,0.0,0.0,1.0,0.0,0.0,0.0,100000.0,0.174447670579,-0.0275207050145,-0.0480120927095,1.0,0.0,0.0,0.0,1.0,0.0,0.0,0.0,1.0,-0.466490525007,0.126905823313,8.67723306417,0.1,0.0,0.0,0.0,0.1,0.0,0.0,0.0,0.1
1505403908139965626,8996,1505403908139535606,0.00185284647523,0.00210255418349,-0.995995718908,0.0893570038867,1.0,0.0,0.0,0.0,1.0,0.0,0.0,0.0,100000.0,0.160552412271,-0.0187353435904,0.0688496679068,1.0,0.0,0.0,0.0,1.0,0.0,0.0,0.0,1.0,-0.418758087605,0.48420997262,8.71665569544,0.1,0.0,0.0,0.0,0.1,0.0,0.0,0.0,0.1
1505403908141316786,8997,1505403908140393117,0.00174616795384,0.00153240152985,-0.995989265638,0.0894426373577,1.0,0.0,0.0,0.0,1.0,0.0,0.0,0.0,100000.0,0.139378815889,-0.0585790090263,-0.0429451018572,1.0,0.0,0.0,0.0,1.0,0.0,0.0,0.0,1.0,-0.268577810377,0.516951485723,8.76291726828,0.1,0.0,0.0,0.0,0.1,0.0,0.0,0.0,0.1
1505403908143431209,8998,1505403908143292006,0.00171377650925,0.000916389599311,-0.995979252334,0.0895631180857,1.0,0.0,0.0,0.0,1.0,0.0,0.0,0.0,100000.0,0.164646327496,-0.0313935391605,-0.0258322246373,1.0,0.0,0.0,0.0,1.0,0.0,0.0,0.0,1.0,-0.202736368403,0.506932747364,8.90339770317,0.1,0.0,0.0,0.0,0.1,0.0,0.0,0.0,0.1
1505403908149695497,8999,1505403908149500197,0.00172115427544,0.000540803196017,-0.995953736092,0.0898493223357,1.0,0.0,0.0,0.0,1.0,0.0,0.0,0.0,100000.0,0.0644507482648,-0.00234472006559,0.0370375923812,1.0,0.0,0.0,0.0,1.0,0.0,0.0,0.0,1.0,-0.175344933942,0.672913619876,9.01400712729,0.1,0.0,0.0,0.0,0.1,0.0,0.0,0.0,0.1
1505403908153581645,9000,1505403908153442383,0.00174532163809,7.87308206608e-05,-0.995946848188,0.0899267659698,1.0,0.0,0.0,0.0,1.0,0.0,0.0,0.0,100000.0,0.10654271394,0.000901808030903,-0.0419048517942,1.0,0.0,0.0,0.0,1.0,0.0,0.0,0.0,1.0,-0.13942309469,0.56265218854,9.13094263077,0.1,0.0,0.0,0.0,0.1,0.0,0.0,0.0,0.1
1505403908158633344,9001,1505403908158469105,0.0018937461135,-0.000301398383235,-0.995909638647,0.0903344592828,1.0,0.0,0.0,0.0,1.0,0.0,0.0,0.0,100000.0,0.0711870640516,0.0503500923514,0.0849095061421,1.0,0.0,0.0,0.0,1.0,0.0,0.0,0.0,1.0,-0.219570263475,0.666623829305,9.28622305393,0.1,0.0,0.0,0.0,0.1,0.0,0.0,0.0,0.1
1505403908164856943,9002,1505403908164686324,0.00189304554864,-0.000677800475211,-0.995887414411,0.0905771206359,1.0,0.0,0.0,0.0,1.0,0.0,0.0,0.0,100000.0,0.0708376541734,-0.0138193070889,0.0220668036491,1.0,0.0,0.0,0.0,1.0,0.0,0.0,0.0,1.0,-0.292786929011,0.522690226883,9.25884392262,0.1,0.0,0.0,0.0,0.1,0.0,0.0,0.0,0.1
1505403908175028450,9003,1505403908174797644,0.00194240000218,-0.00111962892294,-0.995858498287,0.0908890802128,1.0,0.0,0.0,0.0,1.0,0.0,0.0,0.0,100000.0,0.101285606623,-0.00605754461139,0.0524031817913,1.0,0.0,0.0,0.0,1.0,0.0,0.0,0.0,1.0,-0.448051507771,0.55578385815,9.18856486082,0.1,0.0,0.0,0.0,0.1,0.0,0.0,0.0,0.1
1505403908175114112,9004,1505403908174821652,0.00189249985061,-0.00152668050941,-0.995827118865,0.0912273918543,1.0,0.0,0.0,0.0,1.0,0.0,0.0,0.0,100000.0,0.0836037248373,-0.0502284541726,0.0600004941225,1.0,0.0,0.0,0.0,1.0,0.0,0.0,0.0,1.0,-0.573671168834,0.548944040388,8.96359475851,0.1,0.0,0.0,0.0,0.1,0.0,0.0,0.0,0.1
1505403908178907469,9005,1505403908178552390,0.00179761188042,-0.00201705255726,-0.995809732719,0.0914093885371,1.0,0.0,0.0,0.0,1.0,0.0,0.0,0.0,100000.0,0.122327849269,-0.0800217464566,-0.00441452860832,1.0,0.0,0.0,0.0,1.0,0.0,0.0,0.0,1.0,-0.671260982752,0.421614351869,8.84927146435,0.1,0.0,0.0,0.0,0.1,0.0,0.0,0.0,0.1
1505403908183859282,9006,1505403908183625734,0.00178117829536,-0.0025002184292,-0.995789562795,0.0916172633313,1.0,0.0,0.0,0.0,1.0,0.0,0.0,0.0,100000.0,0.118043631315,-0.0405387058854,0.0105730900541,1.0,0.0,0.0,0.0,1.0,0.0,0.0,0.0,1.0,-0.586101359874,0.529581484199,8.86901023388,0.1,0.0,0.0,0.0,0.1,0.0,0.0,0.0,0.1
1505403908188796910,9007,1505403908188553910,0.00161672427006,-0.00299728304995,-0.995784498059,0.0916604381522,1.0,0.0,0.0,0.0,1.0,0.0,0.0,0.0,100000.0,0.121825277805,-0.0937783494592,-0.0604046732187,1.0,0.0,0.0,0.0,1.0,0.0,0.0,0.0,1.0,-0.472263656557,0.487807857245,8.85907016993,0.1,0.0,0.0,0.0,0.1,0.0,0.0,0.0,0.1
1505403908195629948,9008,1505403908195409461,0.00159457059559,-0.00361274505469,-0.99578095669,0.0916771057141,1.0,0.0,0.0,0.0,1.0,0.0,0.0,0.0,100000.0,0.168602094054,-0.0286211613566,-0.0669880434871,1.0,0.0,0.0,0.0,1.0,0.0,0.0,0.0,1.0,-0.252881317213,0.602254730463,9.03985584974,0.1,0.0,0.0,0.0,0.1,0.0,0.0,0.0,0.1
1505403908199483469,9009,1505403908199247281,0.00162172842706,-0.00409207373072,-0.995767114458,0.0918067464495,1.0,0.0,0.0,0.0,1.0,0.0,0.0,0.0,100000.0,0.112780600786,-0.000903279520571,-0.0244056880474,1.0,0.0,0.0,0.0,1.0,0.0,0.0,0.0,1.0,-0.148126811348,0.657944746315,9.08807599545,0.1,0.0,0.0,0.0,0.1,0.0,0.0,0.0,0.1
1505403908206689611,9010,1505403908206493102,0.00166562831576,-0.00456108525621,-0.995752242106,0.0919450625389,1.0,0.0,0.0,0.0,1.0,0.0,0.0,0.0,100000.0,0.112916857004,0.0133289145306,-0.0191875100136,1.0,0.0,0.0,0.0,1.0,0.0,0.0,0.0,1.0,-0.0569718199782,0.657450868189,9.31176569462,0.1,0.0,0.0,0.0,0.1,0.0,0.0,0.0,0.1
1505403908209127595,9011,1505403908208927142,0.00189471111988,-0.0048373140115,-0.995713676374,0.0923433004815,1.0,0.0,0.0,0.0,1.0,0.0,0.0,0.0,100000.0,0.0452523007989,0.0914810821414,0.0826535224915,1.0,0.0,0.0,0.0,1.0,0.0,0.0,0.0,1.0,-0.152812675387,0.583146670461,9.48681234121,0.1,0.0,0.0,0.0,0.1,0.0,0.0,0.0,0.1
1505403908213974577,9012,1505403908213852063,0.00191905659082,-0.00488700073634,-0.995673027457,0.0927774586818,1.0,0.0,0.0,0.0,1.0,0.0,0.0,0.0,100000.0,-0.0411168448627,0.00938671454787,0.0987303704023,1.0,0.0,0.0,0.0,1.0,0.0,0.0,0.0,1.0,-0.262847977132,0.401088071615,9.43975460529,0.1,0.0,0.0,0.0,0.1,0.0,0.0,0.0,0.1
1505403908219407068,9013,1505403908219193941,0.0019594125182,-0.00501406710896,-0.995632581258,0.0932029128926,1.0,0.0,0.0,0.0,1.0,0.0,0.0,0.0,100000.0,-0.00828148797154,0.00342413969338,0.0948014706373,1.0,0.0,0.0,0.0,1.0,0.0,0.0,0.0,1.0,-0.395420484245,0.406761682779,9.40456104279,0.1,0.0,0.0,0.0,0.1,0.0,0.0,0.0,0.1
1505403908223800376,9014,1505403908223634796,0.00190310672049,-0.00494854321771,-0.995588947615,0.0936725012544,1.0,0.0,0.0,0.0,1.0,0.0,0.0,0.0,100000.0,-0.0829838439822,-0.0369731672108,0.113330155611,1.0,0.0,0.0,0.0,1.0,0.0,0.0,0.0,1.0,-0.59610542208,0.351403048635,9.12227245569,0.1,0.0,0.0,0.0,0.1,0.0,0.0,0.0,0.1
1505403908228804722,9015,1505403908228629885,0.00169280985874,-0.00502940124381,-0.99556673198,0.0939080491357,1.0,0.0,0.0,0.0,1.0,0.0,0.0,0.0,100000.0,-0.0331619158387,-0.103405199945,0.019541323185,1.0,0.0,0.0,0.0,1.0,0.0,0.0,0.0,1.0,-0.586687785387,0.365019963682,9.00804145336,0.1,0.0,0.0,0.0,0.1,0.0,0.0,0.0,0.1
1505403908234159849,9016,1505403908234014076,0.00161728967316,-0.00514137305167,-0.995538354034,0.0942036958098,1.0,0.0,0.0,0.0,1.0,0.0,0.0,0.0,100000.0,-0.0164903663099,-0.0529778860509,0.0435585975647,1.0,0.0,0.0,0.0,1.0,0.0,0.0,0.0,1.0,-0.614980123937,0.377939870954,8.98063895702,0.1,0.0,0.0,0.0,0.1,0.0,0.0,0.0,0.1
1505403908240948987,9017,1505403908240615129,0.00137356671447,-0.00533967319738,-0.995529333748,0.0942918175201,1.0,0.0,0.0,0.0,1.0,0.0,0.0,0.0,100000.0,0.011526890099,-0.110795870423,-0.0398952960968,1.0,0.0,0.0,0.0,1.0,0.0,0.0,0.0,1.0,-0.39742410779,0.368178622425,8.82462545633,0.1,0.0,0.0,0.0,0.1,0.0,0.0,0.0,0.1
1505403908244832114,9018,1505403908244649755,0.00128382368883,-0.00577765491473,-0.995522884344,0.0943353446339,1.0,0.0,0.0,0.0,1.0,0.0,0.0,0.0,100000.0,0.111307032406,-0.0521289967,-0.0609457716346,1.0,0.0,0.0,0.0,1.0,0.0,0.0,0.0,1.0,-0.265377605706,0.44501190111,8.96598500013,0.1,0.0,0.0,0.0,0.1,0.0,0.0,0.0,0.1
1505403908250753770,9019,1505403908250576518,0.00136550499427,-0.00607661362531,-0.995509525337,0.0944563133189,1.0,0.0,0.0,0.0,1.0,0.0,0.0,0.0,100000.0,0.0588248558342,0.0313080698252,-0.0278724376112,1.0,0.0,0.0,0.0,1.0,0.0,0.0,0.0,1.0,-0.0674753414467,0.501273228228,8.80165530443,0.1,0.0,0.0,0.0,0.1,0.0,0.0,0.0,0.1
1505403908254293397,9020,1505403908254158981,0.00148791605876,-0.00645078662869,-0.995517810383,0.0943422634208,1.0,0.0,0.0,0.0,1.0,0.0,0.0,0.0,100000.0,0.103208392859,0.0521264970303,-0.120027840137,1.0,0.0,0.0,0.0,1.0,0.0,0.0,0.0,1.0,-0.00363033781759,0.304063891992,9.14776194096,0.1,0.0,0.0,0.0,0.1,0.0,0.0,0.0,0.1
1505403908259838814,9021,1505403908259600033,0.00195763137664,-0.00648477072201,-0.995489881844,0.0946256338122,1.0,0.0,0.0,0.0,1.0,0.0,0.0,0.0,100000.0,-0.00275696069002,0.200576275587,0.0356534421444,1.0,0.0,0.0,0.0,1.0,0.0,0.0,0.0,1.0,-0.0279352416284,-0.0137709370814,9.31743696928,0.1,0.0,0.0,0.0,0.1,0.0,0.0,0.0,0.1
1505403908271997535,9022,1505403908271700471,0.00217853622683,-0.00631465382311,-0.995484851623,0.0946852117031,1.0,0.0,0.0,0.0,1.0,0.0,0.0,0.0,100000.0,-0.0670776069164,0.10509224236,-0.0512809604406,1.0,0.0,0.0,0.0,1.0,0.0,0.0,0.0,1.0,-0.0640886683948,-0.42415978834,9.5895378232,0.1,0.0,0.0,0.0,0.1,0.0,0.0,0.0,0.1
1505403908275919505,9023,1505403908275691442,0.00234791212895,-0.00623678087031,-0.995463544107,0.0949100744179,1.0,0.0,0.0,0.0,1.0,0.0,0.0,0.0,100000.0,-0.0122754871845,0.0718687996268,0.0140887349844,1.0,0.0,0.0,0.0,1.0,0.0,0.0,0.0,1.0,-0.242795203626,-0.758381259441,9.61659626961,0.1,0.0,0.0,0.0,0.1,0.0,0.0,0.0,0.1
1505403908283431532,9024,1505403908283250607,0.00238638331332,-0.00588181713999,-0.995431554789,0.0952666212896,1.0,0.0,0.0,0.0,1.0,0.0,0.0,0.0,100000.0,-0.113311581314,0.0238788612187,0.0660647377372,1.0,0.0,0.0,0.0,1.0,0.0,0.0,0.0,1.0,-0.382379151881,-1.01300529689,9.43183561563,0.1,0.0,0.0,0.0,0.1,0.0,0.0,0.0,0.1
1505403908286723268,9025,1505403908286539482,0.00219719549908,-0.00591738854614,-0.995427507092,0.095311253111,1.0,0.0,0.0,0.0,1.0,0.0,0.0,0.0,100000.0,0.043533526361,-0.0869959443808,-0.0564003251493,1.0,0.0,0.0,0.0,1.0,0.0,0.0,0.0,1.0,-0.509965052456,-1.18787875026,9.23511674404,0.1,0.0,0.0,0.0,0.1,0.0,0.0,0.0,0.1
1505403908286732206,9026,1505403908286561164,0.00220899798734,-0.00582781690922,-0.995382975647,0.0957804190294,1.0,0.0,0.0,0.0,1.0,0.0,0.0,0.0,100000.0,0.0160494446754,-0.00595983676612,0.111337341368,1.0,0.0,0.0,0.0,1.0,0.0,0.0,0.0,1.0,-0.542687216401,-1.48088713586,9.11289899349,0.1,0.0,0.0,0.0,0.1,0.0,0.0,0.0,0.1
1505403908289232994,9027,1505403908289097670,0.00201218098763,-0.00587294580026,-0.995375486358,0.0958597975855,1.0,0.0,0.0,0.0,1.0,0.0,0.0,0.0,100000.0,0.0678588300943,-0.0964887589216,-0.0425047129393,1.0,0.0,0.0,0.0,1.0,0.0,0.0,0.0,1.0,-0.551550225914,-1.57808664441,8.97155230045,0.1,0.0,0.0,0.0,0.1,0.0,0.0,0.0,0.1
1505403908294337546,9028,1505403908294168804,0.00193375721571,-0.00613439985128,-0.99534976518,0.0961117822001,1.0,0.0,0.0,0.0,1.0,0.0,0.0,0.0,100000.0,0.170635908842,-0.0495939403772,0.0234403088689,1.0,0.0,0.0,0.0,1.0,0.0,0.0,0.0,1.0,-0.423667078465,-1.79785890579,9.01146793365,0.1,0.0,0.0,0.0,0.1,0.0,0.0,0.0,0.1
1505403908300483843,9029,1505403908300276156,0.00189506105051,-0.00598874043425,-0.995324641038,0.0963815473737,1.0,0.0,0.0,0.0,1.0,0.0,0.0,0.0,100000.0,0.00553851574659,-0.0126397972926,0.0327794402838,1.0,0.0,0.0,0.0,1.0,0.0,0.0,0.0,1.0,-0.366820275038,-1.70169548988,8.94690337181,0.1,0.0,0.0,0.0,0.1,0.0,0.0,0.0,0.1
1505403908309211305,9030,1505403908309052502,0.00186151213732,-0.00609724197056,-0.995327399964,0.0963469007965,1.0,0.0,0.0,0.0,1.0,0.0,0.0,0.0,100000.0,0.113941691816,-0.0156213687733,-0.0882317647338,1.0,0.0,0.0,0.0,1.0,0.0,0.0,0.0,1.0,-0.21187280342,-1.82646484673,9.16554038525,0.1,0.0,0.0,0.0,0.1,0.0,0.0,0.0,0.1
1505403908311315544,9031,1505403908311175729,0.00210643699051,-0.00570468002429,-0.995290588108,0.0967453604685,1.0,0.0,0.0,0.0,1.0,0.0,0.0,0.0,100000.0,-0.0772980600595,0.123945146799,0.0814633071423,1.0,0.0,0.0,0.0,1.0,0.0,0.0,0.0,1.0,-0.135870717093,-1.78657944202,9.42316485643,0.1,0.0,0.0,0.0,0.1,0.0,0.0,0.0,0.1
1505403908314500984,9032,1505403908314323742,0.00215380959517,-0.00529696269784,-0.995304512067,0.0966241768405,1.0,0.0,0.0,0.0,1.0,0.0,0.0,0.0,100000.0,-0.104971170425,0.0442215204239,-0.124414697289,1.0,0.0,0.0,0.0,1.0,0.0,0.0,0.0,1.0,-0.0717539148405,-1.5613086611,9.56477265358,0.1,0.0,0.0,0.0,0.1,0.0,0.0,0.0,0.1
1505403908319701038,9033,1505403908319430645,0.00220684844786,-0.00501967330128,-0.995286407932,0.0968240615,1.0,0.0,0.0,0.0,1.0,0.0,0.0,0.0,100000.0,-0.0697731226683,0.046447776258,0.00210276246071,1.0,0.0,0.0,0.0,1.0,0.0,0.0,0.0,1.0,-0.0899298930541,-1.29210098088,9.73314449787,0.1,0.0,0.0,0.0,0.1,0.0,0.0,0.0,0.1
1505403908324475790,9034,1505403908324306293,0.00225765835124,-0.00445332300073,-0.995274545892,0.0969724146002,1.0,0.0,0.0,0.0,1.0,0.0,0.0,0.0,100000.0,-0.223606482148,0.0440079644322,-0.0167572796345,1.0,0.0,0.0,0.0,1.0,0.0,0.0,0.0,1.0,-0.227907377481,-0.614516182244,9.49002970457,0.1,0.0,0.0,0.0,0.1,0.0,0.0,0.0,0.1
1505403908329465701,9035,1505403908329319737,0.00203864421994,-0.00444812388237,-0.995260538897,0.0971211503111,1.0,0.0,0.0,0.0,1.0,0.0,0.0,0.0,100000.0,-0.0307974480093,-0.0852863192558,-0.0153054744005,1.0,0.0,0.0,0.0,1.0,0.0,0.0,0.0,1.0,-0.255309289694,-0.230667115003,9.54149349928,0.1,0.0,0.0,0.0,0.1,0.0,0.0,0.0,0.1
1505403908338957372,9036,1505403908338733216,0.00211228183683,-0.00419468979566,-0.995219005249,0.0975554941258,1.0,0.0,0.0,0.0,1.0,0.0,0.0,0.0,100000.0,-0.143372923136,0.0345877818763,0.0966315791011,1.0,0.0,0.0,0.0,1.0,0.0,0.0,0.0,1.0,-0.421752680093,0.141276242025,9.34739384651,0.1,0.0,0.0,0.0,0.1,0.0,0.0,0.0,0.1
1505403908340212225,9037,1505403908340015094,0.00182014004282,-0.00406511537886,-0.995193535333,0.0978263214003,1.0,0.0,0.0,0.0,1.0,0.0,0.0,0.0,100000.0,-0.111009478569,-0.120656952262,0.0354111604393,1.0,0.0,0.0,0.0,1.0,0.0,0.0,0.0,1.0,-0.433631055057,0.2156328924,9.36934119463,0.1,0.0,0.0,0.0,0.1,0.0,0.0,0.0,0.1
1505403908345882286,9038,1505403908345701194,0.00167981286856,-0.0041398807062,-0.995161779712,0.0981482135179,1.0,0.0,0.0,0.0,1.0,0.0,0.0,0.0,100000.0,-0.0326125212014,-0.0688133686781,0.0539781451225,1.0,0.0,0.0,0.0,1.0,0.0,0.0,0.0,1.0,-0.452795629203,0.339766136557,9.21078324318,0.1,0.0,0.0,0.0,0.1,0.0,0.0,0.0,0.1
1505403908349547576,9039,1505403908349428763,0.00147071308268,-0.00405503561177,-0.995140062298,0.0983750481502,1.0,0.0,0.0,0.0,1.0,0.0,0.0,0.0,100000.0,-0.106217041612,-0.09449249506,0.0125936567783,1.0,0.0,0.0,0.0,1.0,0.0,0.0,0.0,1.0,-0.540343047678,0.503002020717,9.05399519205,0.1,0.0,0.0,0.0,0.1,0.0,0.0,0.0,0.1
1505403908354742372,9040,1505403908354588843,0.00114977320024,-0.00443740542951,-0.995121566539,0.0985497603387,1.0,0.0,0.0,0.0,1.0,0.0,0.0,0.0,100000.0,0.0666995570064,-0.151105776429,-0.00418512523174,1.0,0.0,0.0,0.0,1.0,0.0,0.0,0.0,1.0,-0.476382362098,0.645077191293,8.99231387377,0.1,0.0,0.0,0.0,0.1,0.0,0.0,0.0,0.1
1505403908364408253,9041,1505403908364173806,0.001126343519,-0.00481675251392,-0.995112097487,0.0986278037863,1.0,0.0,0.0,0.0,1.0,0.0,0.0,0.0,100000.0,0.0725604817271,-0.0374821536243,-0.0456918329,1.0,0.0,0.0,0.0,1.0,0.0,0.0,0.0,1.0,-0.487320842594,0.740874944627,9.02230463028,0.1,0.0,0.0,0.0,0.1,0.0,0.0,0.0,0.1
1505403908366275499,9042,1505403908366097132,0.000892700486965,-0.00519943253052,-0.995105144691,0.0986808998582,1.0,0.0,0.0,0.0,1.0,0.0,0.0,0.0,100000.0,0.0740573778749,-0.113353490829,-0.0545990169048,1.0,0.0,0.0,0.0,1.0,0.0,0.0,0.0,1.0,-0.382217312604,0.618225744367,9.14729347229,0.1,0.0,0.0,0.0,0.1,0.0,0.0,0.0,0.1
1505403908375409477,9043,1505403908375255132,0.000993913578226,-0.00560155745299,-0.995103792024,0.0986715652574,1.0,0.0,0.0,0.0,1.0,0.0,0.0,0.0,100000.0,0.102324202657,0.0245684143156,-0.0799167603254,1.0,0.0,0.0,0.0,1.0,0.0,0.0,0.0,1.0,-0.2541717235,0.497225712985,9.38912143707,0.1,0.0,0.0,0.0,0.1,0.0,0.0,0.0,0.1
1505403908375561274,9044,1505403908375290280,0.00117079769745,-0.00569794438839,-0.995091103448,0.0987919961363,1.0,0.0,0.0,0.0,1.0,0.0,0.0,0.0,100000.0,-0.0174094475806,0.0703784152865,-0.0258694589138,1.0,0.0,0.0,0.0,1.0,0.0,0.0,0.0,1.0,-0.180498034507,0.527051855624,9.424368155,0.1,0.0,0.0,0.0,0.1,0.0,0.0,0.0,0.1
1505403908379991761,9045,1505403908379752266,0.00129758716881,-0.00590446731869,-0.995072569414,0.0989648176519,1.0,0.0,0.0,0.0,1.0,0.0,0.0,0.0,100000.0,0.02824055776,0.057331033051,-0.00728011131287,1.0,0.0,0.0,0.0,1.0,0.0,0.0,0.0,1.0,-0.0414187341928,0.492609149963,9.6259376049,0.1,0.0,0.0,0.0,0.1,0.0,0.0,0.0,0.1
1505403908385188940,9046,1505403908385036933,0.00164303354751,-0.00592243987831,-0.995045352382,0.0992319094371,1.0,0.0,0.0,0.0,1.0,0.0,0.0,0.0,100000.0,-0.0419680662453,0.142677620053,0.0273016393185,1.0,0.0,0.0,0.0,1.0,0.0,0.0,0.0,1.0,-0.14026206322,0.561888882518,9.58705821037,0.1,0.0,0.0,0.0,0.1,0.0,0.0,0.0,0.1
1505403908389697600,9047,1505403908389507790,0.00162531317577,-0.00572209760053,-0.99500835296,0.0996142233589,1.0,0.0,0.0,0.0,1.0,0.0,0.0,0.0,100000.0,-0.138065651059,0.0142427096143,0.0766988843679,1.0,0.0,0.0,0.0,1.0,0.0,0.0,0.0,1.0,-0.0918915051967,0.459342909604,9.63583444357,0.1,0.0,0.0,0.0,0.1,0.0,0.0,0.0,0.1
1505403908395120745,9048,1505403908395008008,0.001646920145,-0.00557051876959,-0.994979576777,0.0999094528657,1.0,0.0,0.0,0.0,1.0,0.0,0.0,0.0,100000.0,-0.112236760557,0.0184456650168,0.0425044596195,1.0,0.0,0.0,0.0,1.0,0.0,0.0,0.0,1.0,-0.194221935794,0.401628241688,9.59044847488,0.1,0.0,0.0,0.0,0.1,0.0,0.0,0.0,0.1
1505403908407139764,9049,1505403908406946718,0.00161312972481,-0.00521391679664,-0.994943945913,0.100283385343,1.0,0.0,0.0,0.0,1.0,0.0,0.0,0.0,100000.0,-0.193604007363,0.000427951104939,0.0731350630522,1.0,0.0,0.0,0.0,1.0,0.0,0.0,0.0,1.0,-0.308784265071,0.345810010284,9.40534669161,0.1,0.0,0.0,0.0,0.1,0.0,0.0,0.0,0.1
1505403908409007727,9050,1505403908408830904,0.001399363279,-0.00507729808588,-0.994911525299,0.100614708936,1.0,0.0,0.0,0.0,1.0,0.0,0.0,0.0,100000.0,-0.113856837153,-0.0821533352137,0.0600683689117,1.0,0.0,0.0,0.0,1.0,0.0,0.0,0.0,1.0,-0.316802081466,0.382347280532,9.32138565779,0.1,0.0,0.0,0.0,0.1,0.0,0.0,0.0,0.1
1505403908413632889,9051,1505403908413337961,0.00138958009949,-0.00513944196875,-0.994883085507,0.10089252388,1.0,0.0,0.0,0.0,1.0,0.0,0.0,0.0,100000.0,-0.0335622318089,-0.0118543235585,0.0333041548729,1.0,0.0,0.0,0.0,1.0,0.0,0.0,0.0,1.0,-0.414457025379,0.484322416782,9.0467310071,0.1,0.0,0.0,0.0,0.1,0.0,0.0,0.0,0.1
1505403908415519629,9052,1505403908414995376,0.0011456069817,-0.00522539192304,-0.994851077796,0.101206303524,1.0,0.0,0.0,0.0,1.0,0.0,0.0,0.0,100000.0,-0.0294146761298,-0.108978576958,0.0502960681915,1.0,0.0,0.0,0.0,1.0,0.0,0.0,0.0,1.0,-0.391939534247,0.394848625362,9.0004817009,0.1,0.0,0.0,0.0,0.1,0.0,0.0,0.0,0.1
1505403908420064016,9053,1505403908419859772,0.00109332073552,-0.00538847085172,-0.994826365068,0.10144097987,1.0,0.0,0.0,0.0,1.0,0.0,0.0,0.0,100000.0,0.0149465464056,-0.0313299149275,0.0195455253124,1.0,0.0,0.0,0.0,1.0,0.0,0.0,0.0,1.0,-0.374348776788,0.322716461867,8.93336684704,0.1,0.0,0.0,0.0,0.1,0.0,0.0,0.0,0.1
1505403908424838018,9054,1505403908424598921,0.0010562223695,-0.0054447932684,-0.994807476325,0.101623440546,1.0,0.0,0.0,0.0,1.0,0.0,0.0,0.0,100000.0,-0.025181863457,-0.0210908446461,-0.00425545871258,1.0,0.0,0.0,0.0,1.0,0.0,0.0,0.0,1.0,-0.314925797284,0.305076546595,9.01995586157,0.1,0.0,0.0,0.0,0.1,0.0,0.0,0.0,0.1
1505403908430239177,9055,1505403908430123980,0.00102768225494,-0.00550026727148,-0.994791206703,0.101779889935,1.0,0.0,0.0,0.0,1.0,0.0,0.0,0.0,100000.0,-0.0220964625478,-0.0108723249286,-0.0134576261044,1.0,0.0,0.0,0.0,1.0,0.0,0.0,0.0,1.0,-0.248944384232,0.213630911708,9.1966240406,0.1,0.0,0.0,0.0,0.1,0.0,0.0,0.0,0.1
1505403908438749607,9056,1505403908438522197,0.0012306865918,-0.0055057311252,-0.994778629216,0.101900202109,1.0,0.0,0.0,0.0,1.0,0.0,0.0,0.0,100000.0,-0.0281396638602,0.0832353234291,-0.0281511675566,1.0,0.0,0.0,0.0,1.0,0.0,0.0,0.0,1.0,-0.232205172256,0.202291082218,9.34952765703,0.1,0.0,0.0,0.0,0.1,0.0,0.0,0.0,0.1
1505403908440472712,9057,1505403908440235518,0.0012545182477,-0.00530141144612,-0.994762801649,0.102065124679,1.0,0.0,0.0,0.0,1.0,0.0,0.0,0.0,100000.0,-0.110599532723,0.0205315835774,-0.00986422039568,1.0,0.0,0.0,0.0,1.0,0.0,0.0,0.0,1.0,-0.202502207085,0.048276846949,9.53796538115,0.1,0.0,0.0,0.0,0.1,0.0,0.0,0.0,0.1
1505403908445777615,9058,1505403908445572950,0.00136897187992,-0.00512280150034,-0.994740452142,0.102290349955,1.0,0.0,0.0,0.0,1.0,0.0,0.0,0.0,100000.0,-0.0726033896208,0.0589709319174,0.0114823132753,1.0,0.0,0.0,0.0,1.0,0.0,0.0,0.0,1.0,-0.221618499607,-0.366199641675,9.61695901155,0.1,0.0,0.0,0.0,0.1,0.0,0.0,0.0,0.1
1505403908451292030,9059,1505403908451169741,0.00137563133562,-0.00457797236401,-0.994715340831,0.102559936247,1.0,0.0,0.0,0.0,1.0,0.0,0.0,0.0,100000.0,-0.198921099305,0.0167995728552,0.033044796437,1.0,0.0,0.0,0.0,1.0,0.0,0.0,0.0,1.0,-0.382378531247,-0.822806215286,9.65452003479,0.1,0.0,0.0,0.0,0.1,0.0,0.0,0.0,0.1
1505403908457040069,9060,1505403908456841251,0.00126827096467,-0.00394832531432,-0.99468222013,0.102908129773,1.0,0.0,0.0,0.0,1.0,0.0,0.0,0.0,100000.0,-0.211597025394,-0.0176211446524,0.0617529936135,1.0,0.0,0.0,0.0,1.0,0.0,0.0,0.0,1.0,-0.296475827694,-1.23628910184,9.60051646233,0.1,0.0,0.0,0.0,0.1,0.0,0.0,0.0,0.1
1505403908460786413,9061,1505403908460119192,0.00122042123205,-0.00331274216656,-0.994673734859,0.103013093796,1.0,0.0,0.0,0.0,1.0,0.0,0.0,0.0,100000.0,-0.195637181401,0.0013412386179,-0.0323282927275,1.0,0.0,0.0,0.0,1.0,0.0,0.0,0.0,1.0,-0.385736887902,-1.54673940241,9.4875010252,0.1,0.0,0.0,0.0,0.1,0.0,0.0,0.0,0.1
1505403908466417009,9062,1505403908466244295,0.00102638003507,-0.00262211688183,-0.994664199023,0.103127116849,1.0,0.0,0.0,0.0,1.0,0.0,0.0,0.0,100000.0,-0.199476316571,-0.0482774972916,-0.0327983126044,1.0,0.0,0.0,0.0,1.0,0.0,0.0,0.0,1.0,-0.297996014357,-1.91607583463,9.32735542059,0.1,0.0,0.0,0.0,0.1,0.0,0.0,0.0,0.1
1505403908474590417,9063,1505403908474415865,0.000973263251513,-0.00228567376944,-0.994694704078,0.102841013865,1.0,0.0,0.0,0.0,1.0,0.0,0.0,0.0,100000.0,-0.0386650636792,-0.00258807744831,-0.189970374107,1.0,0.0,0.0,0.0,1.0,0.0,0.0,0.0,1.0,-0.220808737352,-2.23806100786,9.22765161991,0.1,0.0,0.0,0.0,0.1,0.0,0.0,0.0,0.1
1505403908475713149,9064,1505403908475560089,0.000841642076444,-0.00203625305159,-0.994722205226,0.102581088624,1.0,0.0,0.0,0.0,1.0,0.0,0.0,0.0,100000.0,0.0138012729585,-0.0432881489396,-0.181015729904,1.0,0.0,0.0,0.0,1.0,0.0,0.0,0.0,1.0,-0.274530067667,-2.63749757409,9.08362145424,0.1,0.0,0.0,0.0,0.1,0.0,0.0,0.0,0.1
1505403908480370416,9065,1505403908480187739,0.000708003185607,-0.00193611130771,-0.994747509315,0.102338374606,1.0,0.0,0.0,0.0,1.0,0.0,0.0,0.0,100000.0,0.0823701173067,-0.0395823121071,-0.173123478889,1.0,0.0,0.0,0.0,1.0,0.0,0.0,0.0,1.0,-0.0932392561808,-2.76179948449,9.09079918861,0.1,0.0,0.0,0.0,0.1,0.0,0.0,0.0,0.1
1505403908485710562,9066,1505403908485513139,0.000615341015725,-0.00189311845264,-0.994774389126,0.102078167095,1.0,0.0,0.0,0.0,1.0,0.0,0.0,0.0,100000.0,0.117582574487,-0.0282509159297,-0.181389808655,1.0,0.0,0.0,0.0,1.0,0.0,0.0,0.0,1.0,-0.186036657915,-3.01824402213,9.02551848888,0.1,0.0,0.0,0.0,0.1,0.0,0.0,0.0,0.1
1505403908490449767,9067,1505403908490320723,0.000366277524089,-0.0014273432887,-0.994740428871,0.102417321293,1.0,0.0,0.0,0.0,1.0,0.0,0.0,0.0,100000.0,-0.0510918051004,-0.0693490430713,0.0598094463348,1.0,0.0,0.0,0.0,1.0,0.0,0.0,0.0,1.0,-0.0431418588385,-3.09770057201,9.11749138832,0.1,0.0,0.0,0.0,0.1,0.0,0.0,0.0,0.1
1505403908497088399,9068,1505403908496944568,0.000309086775088,-0.000783968148703,-0.994706226328,0.102756085773,1.0,0.0,0.0,0.0,1.0,0.0,0.0,0.0,100000.0,-0.0877015143633,0.00912154838443,0.0579777359962,1.0,0.0,0.0,0.0,1.0,0.0,0.0,0.0,1.0,-0.210747887194,-3.60286517143,9.32404985428,0.1,0.0,0.0,0.0,0.1,0.0,0.0,0.0,0.1
1505403908501323609,9069,1505403908500958571,0.000218178970112,0.000347418192695,-0.994594699336,0.103832633367,1.0,0.0,0.0,0.0,1.0,0.0,0.0,0.0,100000.0,-0.25932943821,0.00352367688902,0.356256812811,1.0,0.0,0.0,0.0,1.0,0.0,0.0,0.0,1.0,-0.365310237557,-4.04231097698,9.55023493767,0.1,0.0,0.0,0.0,0.1,0.0,0.0,0.0,0.1
1505403908506892224,9070,1505403908506725279,0.000326389680907,0.0018157119819,-0.994491951678,0.104796730427,1.0,0.0,0.0,0.0,1.0,0.0,0.0,0.0,100000.0,-0.376548349857,0.0980881080031,0.312536209822,1.0,0.0,0.0,0.0,1.0,0.0,0.0,0.0,1.0,-0.378719568998,-4.24345576763,9.90328273773,0.1,0.0,0.0,0.0,0.1,0.0,0.0,0.0,0.1
1505403908512126668,9071,1505403908511964383,0.00058730632291,0.00323036008349,-0.994407303454,0.105561994499,1.0,0.0,0.0,0.0,1.0,0.0,0.0,0.0,100000.0,-0.352982610464,0.148166164756,0.231359124184,1.0,0.0,0.0,0.0,1.0,0.0,0.0,0.0,1.0,-0.544742535055,-4.1517690897,9.88653469086,0.1,0.0,0.0,0.0,0.1,0.0,0.0,0.0,0.1
1505403908515451567,9072,1505403908515352199,0.000744966583311,0.00485394572024,-0.994323635234,0.106284489233,1.0,0.0,0.0,0.0,1.0,0.0,0.0,0.0,100000.0,-0.472981214523,0.132198989391,0.215692162514,1.0,0.0,0.0,0.0,1.0,0.0,0.0,0.0,1.0,-0.309552098066,-3.67536069751,9.83602068424,0.1,0.0,0.0,0.0,0.1,0.0,0.0,0.0,0.1
1505403908520797538,9073,1505403908520597224,0.00108371607615,0.00603972961515,-0.994322942973,0.10622726723,1.0,0.0,0.0,0.0,1.0,0.0,0.0,0.0,100000.0,-0.320331037045,0.182229965925,-0.10153901577,1.0,0.0,0.0,0.0,1.0,0.0,0.0,0.0,1.0,-0.364688362926,-3.14613012671,9.62621331215,0.1,0.0,0.0,0.0,0.1,0.0,0.0,0.0,0.1
1505403908527633813,9074,1505403908527310516,0.00117406267007,0.00690972160875,-0.994301184025,0.106376843203,1.0,0.0,0.0,0.0,1.0,0.0,0.0,0.0,100000.0,-0.23304361105,0.0742210522294,-0.0155584216118,1.0,0.0,0.0,0.0,1.0,0.0,0.0,0.0,1.0,-0.249095234647,-2.73479331732,9.51415759325,0.1,0.0,0.0,0.0,0.1,0.0,0.0,0.0,0.1
1505403908531659131,9075,1505403908531485495,0.00142639643926,0.007532577226,-0.994339579799,0.105971815681,1.0,0.0,0.0,0.0,1.0,0.0,0.0,0.0,100000.0,-0.158055573702,0.137477532029,-0.237688273191,1.0,0.0,0.0,0.0,1.0,0.0,0.0,0.0,1.0,-0.175863838196,-2.27593439221,9.61389877796,0.1,0.0,0.0,0.0,0.1,0.0,0.0,0.0,0.1
1505403908540084326,9076,1505403908539841223,0.00151955217858,0.00760265304197,-0.994396926861,0.105426004745,1.0,0.0,0.0,0.0,1.0,0.0,0.0,0.0,100000.0,0.0303333513439,0.0562054924667,-0.296955704689,1.0,0.0,0.0,0.0,1.0,0.0,0.0,0.0,1.0,-0.099790032208,-1.82708358169,9.49475995302,0.1,0.0,0.0,0.0,0.1,0.0,0.0,0.0,0.1
1505403908541204946,9077,1505403908541087949,0.00152353123178,0.00776006771729,-0.994438834757,0.105018399001,1.0,0.0,0.0,0.0,1.0,0.0,0.0,0.0,100000.0,-0.0326916202903,0.0374533310533,-0.237366914749,1.0,0.0,0.0,0.0,1.0,0.0,0.0,0.0,1.0,0.151217738912,-1.36796559691,9.42983615398,0.1,0.0,0.0,0.0,0.1,0.0,0.0,0.0,0.1
1505403908546701859,9078,1505403908546493710,0.00157305075748,0.00765881318786,-0.994491640656,0.104523895624,1.0,0.0,0.0,0.0,1.0,0.0,0.0,0.0,100000.0,0.0466829128563,0.0328412801027,-0.278219342232,1.0,0.0,0.0,0.0,1.0,0.0,0.0,0.0,1.0,-0.0108567439951,-0.952704778314,9.20648349524,0.1,0.0,0.0,0.0,0.1,0.0,0.0,0.0,0.1
1505403908550608313,9079,1505403908550480822,0.00145243645429,0.00746215087359,-0.994480682015,0.104644062568,1.0,0.0,0.0,0.0,1.0,0.0,0.0,0.0,100000.0,0.0773815214634,-0.0316349193454,-0.0282737016678,1.0,0.0,0.0,0.0,1.0,0.0,0.0,0.0,1.0,0.0685943342745,-0.999026881158,9.27840278149,0.1,0.0,0.0,0.0,0.1,0.0,0.0,0.0,0.1
1505403908561407765,9080,1505403908561111110,0.00157869458997,0.00749364257747,-0.99445088057,0.10492282487,1.0,0.0,0.0,0.0,1.0,0.0,0.0,0.0,100000.0,0.000748261809349,0.0580193996429,0.0373733043671,1.0,0.0,0.0,0.0,1.0,0.0,0.0,0.0,1.0,-0.208942063153,-1.020870547,9.63303648233,0.1,0.0,0.0,0.0,0.1,0.0,0.0,0.0,0.1
1505403908591614789,9081,1505403908591263944,0.00172643621136,0.00755439918959,-0.99439590598,0.105435917225,1.0,0.0,0.0,0.0,1.0,0.0,0.0,0.0,100000.0,0.0157509185374,0.0597787126899,0.128295600414,1.0,0.0,0.0,0.0,1.0,0.0,0.0,0.0,1.0,-0.300093663856,-1.48758092225,9.95291821957,0.1,0.0,0.0,0.0,0.1,0.0,0.0,0.0,0.1
1505403908591635105,9082,1505403908591317637,0.0019974092171,0.00800644591433,-0.994313040956,0.106176662994,1.0,0.0,0.0,0.0,1.0,0.0,0.0,0.0,100000.0,-0.14515838027,0.132326766849,0.224256306887,1.0,0.0,0.0,0.0,1.0,0.0,0.0,0.0,1.0,-0.231200458109,-1.35497026443,10.1750401258,0.1,0.0,0.0,0.0,0.1,0.0,0.0,0.0,0.1
1505403908592314162,9083,1505403908592152439,0.00231602845492,0.00851604268681,-0.994251971847,0.106701122336,1.0,0.0,0.0,0.0,1.0,0.0,0.0,0.0,100000.0,-0.166075155139,0.137331455946,0.134857565165,1.0,0.0,0.0,0.0,1.0,0.0,0.0,0.0,1.0,-0.499025403708,-1.32201317251,9.93175885677,0.1,0.0,0.0,0.0,0.1,0.0,0.0,0.0,0.1
1505403908593765955,9084,1505403908593614939,0.00262171021134,0.00881405306618,-0.994190381089,0.107242366877,1.0,0.0,0.0,0.0,1.0,0.0,0.0,0.0,100000.0,-0.113354280591,0.135370329022,0.141330003738,1.0,0.0,0.0,0.0,1.0,0.0,0.0,0.0,1.0,-0.308196123689,-0.780876225233,9.70029970407,0.1,0.0,0.0,0.0,0.1,0.0,0.0,0.0,0.1
1505403908599094505,9085,1505403908598816997,0.00288965940656,0.00915138063891,-0.994151547551,0.107566735577,1.0,0.0,0.0,0.0,1.0,0.0,0.0,0.0,100000.0,-0.154686778784,0.110868372023,0.0526297092438,1.0,0.0,0.0,0.0,1.0,0.0,0.0,0.0,1.0,-0.484821223468,-0.402159175277,9.56081870794,0.1,0.0,0.0,0.0,0.1,0.0,0.0,0.0,0.1
1505403908599103865,9086,1505403908598843597,0.0029801569638,0.00920515600974,-0.99414786138,0.107593742755,1.0,0.0,0.0,0.0,1.0,0.0,0.0,0.0,100000.0,-0.0558504350483,0.0429841317236,-0.0629696249962,1.0,0.0,0.0,0.0,1.0,0.0,0.0,0.0,1.0,-0.294599853829,-0.240756751597,9.56633226871,0.1,0.0,0.0,0.0,0.1,0.0,0.0,0.0,0.1
1505403908600878519,9087,1505403908600702828,0.0030106430947,0.00931448063169,-0.994127893993,0.107767837796,1.0,0.0,0.0,0.0,1.0,0.0,0.0,0.0,100000.0,-0.10359826684,0.0228944439441,-0.00814640522003,1.0,0.0,0.0,0.0,1.0,0.0,0.0,0.0,1.0,-0.237771632895,0.0941789133474,9.64636272192,0.1,0.0,0.0,0.0,0.1,0.0,0.0,0.0,0.1
1505403908609008186,9088,1505403908608832411,0.00299612079142,0.00937403302846,-0.994135829789,0.107689844905,1.0,0.0,0.0,0.0,1.0,0.0,0.0,0.0,100000.0,-0.0795955210924,0.000139734722325,-0.109015166759,1.0,0.0,0.0,0.0,1.0,0.0,0.0,0.0,1.0,-0.300829808041,0.0554709779099,9.44042342901,0.1,0.0,0.0,0.0,0.1,0.0,0.0,0.0,0.1
1505403908609093817,9089,1505403908608864760,0.00296194349735,0.00912446787139,-0.994141198748,0.107662658001,1.0,0.0,0.0,0.0,1.0,0.0,0.0,0.0,100000.0,0.00618720427155,-0.011125353165,-0.0892331972718,1.0,0.0,0.0,0.0,1.0,0.0,0.0,0.0,1.0,-0.145578399487,0.665544657409,9.16100990772,0.1,0.0,0.0,0.0,0.1,0.0,0.0,0.0,0.1
1505403908609102592,9090,1505403908608875576,0.00303099944696,0.0088948173013,-0.994146865223,0.107627624864,1.0,0.0,0.0,0.0,1.0,0.0,0.0,0.0,100000.0,-0.00215780362487,0.0195902399719,-0.0907178223133,1.0,0.0,0.0,0.0,1.0,0.0,0.0,0.0,1.0,-0.346613292396,0.778014375269,8.98950539827,0.1,0.0,0.0,0.0,0.1,0.0,0.0,0.0,0.1
1505403908611864818,9091,1505403908611652621,0.00302863153622,0.00852519400004,-0.99416998563,0.107443883637,1.0,0.0,0.0,0.0,1.0,0.0,0.0,0.0,100000.0,0.0430160425603,-0.00439610797912,-0.151470214128,1.0,0.0,0.0,0.0,1.0,0.0,0.0,0.0,1.0,-0.146521962993,0.946877323091,8.85172245502,0.1,0.0,0.0,0.0,0.1,0.0,0.0,0.0,0.1
1505403908616364255,9092,1505403908616148626,0.00300124144626,0.00828556098223,-0.99416377018,0.107520882115,1.0,0.0,0.0,0.0,1.0,0.0,0.0,0.0,100000.0,-0.0084450095892,-0.0102711012587,-0.0474485754967,1.0,0.0,0.0,0.0,1.0,0.0,0.0,0.0,1.0,-0.152494463883,0.896836896241,9.14696811438,0.1,0.0,0.0,0.0,0.1,0.0,0.0,0.0,0.1
1505403908634184389,9093,1505403908634024832,0.00294757272601,0.00813064851653,-0.994162492395,0.107546004504,1.0,0.0,0.0,0.0,1.0,0.0,0.0,0.0,100000.0,-0.0237380638719,-0.0217184461653,-0.0671278238297,1.0,0.0,0.0,0.0,1.0,0.0,0.0,0.0,1.0,-0.240389628708,0.591393829137,9.10869679451,0.1,0.0,0.0,0.0,0.1,0.0,0.0,0.0,0.1
1505403908638129949,9094,1505403908637933308,0.00283231533435,0.00796113213346,-0.994137110357,0.107796123197,1.0,0.0,0.0,0.0,1.0,0.0,0.0,0.0,100000.0,-0.0256403759122,-0.0443692803383,0.0251885950565,1.0,0.0,0.0,0.0,1.0,0.0,0.0,0.0,1.0,-0.203017131984,0.668792322278,9.27018939257,0.1,0.0,0.0,0.0,0.1,0.0,0.0,0.0,0.1
1505403908643878122,9095,1505403908643606628,0.00278296492891,0.00782539037978,-0.994100718108,0.108142409022,1.0,0.0,0.0,0.0,1.0,0.0,0.0,0.0,100000.0,-0.0294647030532,-0.0248836129904,0.0608663856983,1.0,0.0,0.0,0.0,1.0,0.0,0.0,0.0,1.0,-0.314413373172,0.561833244562,9.11877237558,0.1,0.0,0.0,0.0,0.1,0.0,0.0,0.0,0.1
1505403908643909756,9096,1505403908643651600,0.00268111680555,0.00769247124618,-0.994070031305,0.108436204102,1.0,0.0,0.0,0.0,1.0,0.0,0.0,0.0,100000.0,-0.0350282490253,-0.0426229760051,0.0400533042848,1.0,0.0,0.0,0.0,1.0,0.0,0.0,0.0,1.0,-0.284341477975,0.621989995241,9.02313116789,0.1,0.0,0.0,0.0,0.1,0.0,0.0,0.0,0.1
1505403908643913946,9097,1505403908643666177,0.00255991597058,0.00764571474127,-0.994020546175,0.108895103926,1.0,0.0,0.0,0.0,1.0,0.0,0.0,0.0,100000.0,-0.0682894587517,-0.0469840541482,0.105528369546,1.0,0.0,0.0,0.0,1.0,0.0,0.0,0.0,1.0,-0.286060285568,0.55073935017,9.14059822559,0.1,0.0,0.0,0.0,0.1,0.0,0.0,0.0,0.1
